,Ax,Ay,Az,Position
0,0.28561440891154133,0.14183848958260156,0.041019766258803096,Idle
0,0.3316888174921087,0.1309187337664659,0.042098002816829114,Idle
0,0.3153867999706864,0.1299310997147759,0.04043427040948029,Idle
0,0.37449461997888567,0.1417579882894527,0.04334199142749783,Idle
0,0.31977857628496636,0.15590810058512958,0.04237633188143554,Idle
0,0.3694278440303461,0.16182648037797842,0.03437566744364904,Idle
0,0.3304874572641622,0.15411111534890515,0.04338527537630127,Idle
0,0.3047514167407362,0.15930279113444257,0.04308897954414511,Idle
0,0.31706565295674083,0.1503725933605949,0.03743067642854849,Idle
0,0.30473333525382623,0.15969403787342978,0.03845817503123708,Idle
0,0.3470173885287011,0.1446153216183501,0.04044768486360899,Idle
0,0.3639598876055747,0.1600366248043918,0.037065562471717696,Idle
0,0.31958877025307203,0.1336919941051351,0.039904256147036715,Idle
0,0.370480336987914,0.14989030663646985,0.044833591420323816,Idle
0,0.30344292698728786,0.14008122237741663,0.04549905941921071,Idle
0,0.35778552094245186,0.15584990513812466,0.04018730350803148,Idle
0,0.308532933415662,0.16969060251486848,0.035703389245117234,Idle
0,0.3663565733369131,0.1371621677886552,0.039283968371183954,Idle
0,0.29458320498615564,0.1670353748564929,0.0439435514264255,Idle
0,0.2838024993965386,0.14066639380834414,0.040950469751408515,Idle
0,0.37232244868518527,0.15533099916325088,0.042971296337734464,Idle
0,0.2997241876116544,0.13085884374654078,0.036157682198857975,Idle
0,0.34838447972030717,0.13709052104842048,0.04386341935721718,Idle
0,0.3756807496810736,0.1407026641455512,0.04325288296701891,Idle
0,0.3103485036001382,0.17068427863813485,0.035631030232953755,Idle
0,0.3012578374937795,0.135401471916816,0.036636779483934054,Idle
0,0.36962737981713173,0.14085527424018365,0.039188630900995516,Idle
0,0.31324127335092344,0.13574933423410154,0.04045510069202841,Idle
0,0.3779892489382178,0.15160200432769036,0.04022404270398111,Idle
0,0.35067367099532226,0.1448997294045676,0.041289563896165705,Idle
0,0.36524166798054314,0.1528277340720978,0.04415261322772288,Idle
0,0.3101969670358216,0.14891115005429106,0.036758601696534644,Idle
0,0.3354538541015089,0.14227472946077152,0.03984575873770578,Idle
0,0.37694537841654874,0.1586178896132743,0.034438279243468414,Idle
0,0.35400203932349555,0.15024418118732114,0.037104209142041315,Idle
0,0.33834857771640814,0.14529323025112775,0.04256495373802939,Idle
0,0.29027872196051363,0.14112873931335676,0.040394846718319,Idle
0,0.3223030614317819,0.127605788473433,0.03776932474981957,Idle
0,0.36166880931504064,0.1459455460877029,0.03733093068437906,Idle
0,0.3763395520775456,0.15089902882377973,0.03918544533702582,Idle
0,0.32209902478115143,0.12896738609187303,0.040567836507318135,Idle
0,0.30239085206028193,0.1720304087393524,0.04411011006987715,Idle
0,0.29142164352940614,0.1713041046853305,0.034933492076377776,Idle
0,0.3656304491806189,0.13350706039730814,0.04172591241917374,Idle
0,0.37825889392457596,0.16500622469260104,0.04482388901449199,Idle
0,0.37894111688979193,0.13560326612975196,0.0365736318573337,Idle
0,0.29216612280593274,0.16907995107745474,0.036077682374417164,Idle
0,0.32949468210278765,0.16819976269638445,0.037317189911444414,Idle
0,0.32360674582250226,0.16402553340421044,0.04569941496734403,Idle
0,0.2827958264012487,0.13116575323124535,0.04491677440892233,Idle
0,0.35048841140394704,0.13414870552798167,0.043250368206697684,Idle
0,0.3385454405558384,0.15820157740743473,0.04154042843120023,Idle
0,0.33346998771614494,0.1650407297485026,0.03431856645249653,Idle
0,0.318008834815452,0.13974094604689816,0.045338888233197816,Idle
0,0.34462268224182213,0.13111656551541798,0.03540953530002005,Idle
0,0.2967515520699461,0.16419965215376414,0.038258119838914535,Idle
0,0.2983163927771922,0.13987752656317537,0.03663330519811245,Idle
0,0.32993743459311603,0.12766455061176765,0.03461883916198505,Idle
0,0.3377772446620929,0.15025323119712622,0.03667901579702966,Idle
0,0.34298325925794065,0.1587628127571786,0.0403758759224626,Idle
0,0.3638155333695146,0.1427439671036884,0.039383937026363815,Idle
0,0.31295046889293704,0.13934611407060526,0.037943691094221965,Idle
0,0.33821415317038594,0.14944022066521354,0.03493155515591786,Idle
0,0.29971733768269787,0.1691450842251952,0.0396859968114496,Idle
0,0.3620490407379791,0.1675003113292556,0.04284118092331073,Idle
0,0.34888314930843123,0.1466194620898178,0.03615496375063736,Idle
0,0.2819403326187291,0.1406750047708865,0.044493286139551017,Idle
0,0.37143705614440803,0.14062654168245903,0.036380911205191574,Idle
0,0.369135927250187,0.13413011533300503,0.038246111602000636,Idle
0,0.2831683302886407,0.16766122823542817,0.04209979591298557,Idle
0,0.3274272308324434,0.15981919152960988,0.04301275274085034,Idle
0,0.2997077238006423,0.1683253714613541,0.04082915069580316,Idle
0,0.306617692952507,0.14306455436497417,0.03590568368913858,Idle
0,0.28092264118323695,0.16578701184702044,0.03417170708241803,Idle
0,0.33893558779075444,0.17010404812284083,0.040952951733056964,Idle
0,0.3212713466481091,0.17033803526430677,0.041976140404402174,Idle
0,0.297314588418403,0.14403617134301114,0.044400495706922116,Idle
0,0.2824165763047108,0.13285110108322137,0.038773395467886634,Idle
0,0.328139617107316,0.16424440311069524,0.03438561541217698,Idle
0,0.3755524652824611,0.14792499843819334,0.03815009314628873,Idle
0,0.3350691030547519,0.13809734177615013,0.035101349142362716,Idle
0,0.37735839023075307,0.17041641355576506,0.04055548700538052,Idle
0,0.36952546089925087,0.13528290654309624,0.043257311668010716,Idle
0,0.3413509672777962,0.14662413666357504,0.03818947612719523,Idle
0,0.3223302938698305,0.13871595460369793,0.04360810891774206,Idle
0,0.2879466532212923,0.15431071340510735,0.03817260767387403,Idle
0,0.3243752773563302,0.1373905750772626,0.04433323467299542,Idle
0,0.3554444436825559,0.1667192400204889,0.03512549567833281,Idle
0,0.35331976175728985,0.13081661152943724,0.043585273538746104,Idle
0,0.34958087911054037,0.14773656839426472,0.04321660421652607,Idle
0,0.35396714274116453,0.16485051378157417,0.03630783469620208,Idle
0,0.31778720999847115,0.14658552551581636,0.034488572151469284,Idle
0,0.297985335570042,0.1639278330254347,0.03623107182536093,Idle
0,0.3488856261897612,0.1325751528622734,0.042936017474243623,Idle
0,0.2857224941130938,0.14836603942017915,0.03759836075462493,Idle
0,0.2826839529886002,0.13204820718196988,0.044257145467879434,Idle
0,0.3271326182287544,0.15136627113601925,0.04427609233103119,Idle
0,0.3174394510555834,0.16630408280961487,0.0340317863037586,Idle
0,0.3324046730624173,0.13630917620587177,0.04426086117517392,Idle
0,0.37595920958452905,0.1384553991095731,0.042846275208338634,Idle
0,0.32240357274492515,0.16364548360798764,0.035078420038061525,Idle
0,0.33986041938025435,0.1469334988321188,0.04329191091840835,Idle
0,0.3117421576468892,0.16210709300319817,0.04503674422263074,Idle
0,0.3548091159779783,0.14973503851073505,0.03448458061568534,Idle
0,0.33425551646599455,0.14508265597010536,0.041503408986821325,Idle
0,0.3440917261700692,0.13785867515101916,0.036688453434452796,Idle
0,0.3438835444410146,0.13114170156293575,0.04077962885726285,Idle
0,0.3348369175441743,0.16785063049634796,0.03782413417046921,Idle
0,0.3597964414928584,0.15173493986929915,0.036034963110032806,Idle
0,0.2928374099486307,0.15835467950318652,0.042348898960731934,Idle
0,0.37895392362766,0.15674077322254487,0.04331985911351222,Idle
0,0.2883469503376752,0.1667907443104025,0.034287529577278895,Idle
0,0.37369408112007346,0.14569284218806114,0.03697237315108035,Idle
0,0.33546685791908637,0.16992525803004352,0.041945423363528786,Idle
0,0.3754798523637565,0.1579573117933782,0.035133106781646675,Idle
0,0.2889834808446807,0.14433285754877656,0.03740412948199714,Idle
0,0.2935121090081281,0.14300683905463982,0.04114786348790994,Idle
0,0.3091645874365809,0.17135034549901149,0.03925857094656955,Idle
0,0.36996001640193665,0.13561653819213362,0.03510204772112414,Idle
0,0.3446790457666902,0.14970598093212495,0.03993210355120439,Idle
0,0.35009416317140074,0.12996672912074234,0.04104794129988676,Idle
0,0.3322059947344935,0.1449797221214265,0.036875516677635854,Idle
0,0.2951917842816634,0.14378515035148762,0.03728089998299682,Idle
0,0.31250327989942417,0.15732150915006862,0.037773745536317946,Idle
0,0.3474927175542494,0.16634370636615292,0.043394569358489565,Idle
0,0.28754161483619306,0.17160912870375805,0.03735552570741183,Idle
0,0.37195225861326076,0.16199053102224967,0.04499124970849619,Idle
0,0.3513858466735706,0.15900569591948954,0.03725747231381363,Idle
0,0.3780242082292579,0.14259171643602364,0.03511233716868318,Idle
0,0.3386149382844438,0.14791496137022817,0.037267724293212005,Idle
0,0.35125425337994715,0.15035993484902876,0.03579521646891265,Idle
0,0.2905177030263306,0.15760020177375186,0.041937432283364905,Idle
0,0.33034681684723405,0.157561501524658,0.04320719563975116,Idle
0,0.28957184990619916,0.15333223060815201,0.035552911703018594,Idle
0,0.29476743841048586,0.13188568484974686,0.04063358300845279,Idle
0,0.31911613888651563,0.1632443508882093,0.03683983582310997,Idle
0,0.3436002398910188,0.15312437835160966,0.045462670872898764,Idle
0,0.2992911359580783,0.14620937130239461,0.038696996275289414,Idle
0,0.36786365288562956,0.1305116999544864,0.04145423627698472,Idle
0,0.3767423543088196,0.13475144687509788,0.041301186065993124,Idle
0,0.33302585938419876,0.15489155259000614,0.03970000797687253,Idle
0,0.32644532934041653,0.1511297911314737,0.042567748705067174,Idle
0,0.3598889335010271,0.12834572991244644,0.03633717481604895,Idle
0,0.3082547803063472,0.14072555511184986,0.037868490687073146,Idle
0,0.36356602207787464,0.14689864891839344,0.036884345502530946,Idle
0,0.34685826002671033,0.16271629534199047,0.034578141319414626,Idle
0,0.3245884716282868,0.16909648118567308,0.03540308826190297,Idle
0,0.28888373382625815,0.15282900463804897,0.04135091523753768,Idle
0,0.37237660197332845,0.15128259487433826,0.04031268904997759,Idle
0,0.3065788798197777,0.1342196709840216,0.04147628946093192,Idle
0,0.34527871086977713,0.15542927508553292,0.04595914912480931,Idle
0,0.28120040030603094,0.1451014039629532,0.03517403979679711,Idle
0,0.3679669080181176,0.15383328456049136,0.03513937940903064,Idle
0,0.2909791581567918,0.14032031333305234,0.040893266317200576,Idle
0,0.36639026978114264,0.15536408480626837,0.037556282553484685,Idle
0,0.37768789867913494,0.1629332241880205,0.041551585071501494,Idle
0,0.34795380131327003,0.15443960665259418,0.03689263712701169,Idle
0,0.3349935848756868,0.13468428815835326,0.036978631330724064,Idle
0,0.3157629943470224,0.15145067758594707,0.03872608266834695,Idle
0,0.3049437156030486,0.15431785291583067,0.03785371626653656,Idle
0,0.3416092379964189,0.1526962150042718,0.04307261076289512,Idle
0,0.3690760273383869,0.16812337775484723,0.045539144571994566,Idle
0,0.3136534771504849,0.1582976040888185,0.03886625265130931,Idle
0,0.3123854412571737,0.17029529608700109,0.040681307537043576,Idle
0,0.33361993192750133,0.16707738415024517,0.04185771071248994,Idle
0,0.3612136871590674,0.14631465146756947,0.037346957965423117,Idle
0,0.354104707544462,0.15259763418231193,0.04140116710669958,Idle
0,0.3209063946238456,0.15959890838470492,0.04151645965888334,Idle
0,0.33286055340359416,0.12833012800886753,0.04310681449523851,Idle
0,0.33588499968700397,0.12829210806252317,0.04001382859236645,Idle
0,0.3362549185644622,0.15368594571105215,0.04134964849246246,Idle
0,0.3729866030211557,0.13512614870689438,0.04527133059413664,Idle
0,0.28582654717872513,0.1476449047830733,0.044973138298097466,Idle
0,0.34808596692385374,0.1429953642396096,0.03870407070898504,Idle
0,0.31757962172011833,0.1313883970798848,0.03834275982490483,Idle
0,0.35970447853752446,0.13149594448887528,0.035812012717935375,Idle
0,0.37492668809565377,0.14830487746136561,0.03885219207313341,Idle
0,0.3287242805827837,0.16486023004927022,0.045734380147755584,Idle
0,0.3450178659223592,0.13663281014760012,0.03467201823077482,Idle
0,0.32965211136332245,0.16161573722453657,0.03908519960897206,Idle
0,0.33759552155603034,0.12782355514554536,0.034263757417325694,Idle
0,0.3125553150167961,0.145442431276603,0.03779606950682006,Idle
0,0.3023807369069162,0.13034860502888143,0.04081957370384785,Idle
0,0.32305834336226474,0.13996150158513135,0.04086831851970435,Idle
0,0.3122158680725479,0.15110617548575142,0.03631785978110525,Idle
0,0.35087005249579883,0.13253943486714864,0.043400227399082704,Idle
0,0.3761959855179868,0.1323160566499704,0.042957223657408845,Idle
0,0.33937954025709255,0.16164578771707705,0.036629313437348696,Idle
0,0.3444628510162342,0.14037022754335876,0.040057957381348513,Idle
0,0.367838335812857,0.13475755969288966,0.037789186736828344,Idle
0,0.284719086663642,0.13833735450239493,0.034257448769945645,Idle
0,0.3611600735520118,0.17061191220004338,0.0423510807637782,Idle
0,0.29735165934428204,0.15439952277167088,0.04005800246932539,Idle
0,0.36400870085435044,0.1428558357568003,0.03662063815582052,Idle
0,0.3223218573429075,0.1445202834084584,0.03873564228229549,Idle
0,0.37069130294419367,0.1295849782208658,0.04295881714306151,Idle
0,0.3516969610127942,0.15347358909978456,0.04337254481506638,Idle
0,0.34431295442834875,0.15541776718225533,0.0406001606245195,Idle
0,0.3025427491438769,0.17147683394113525,0.044070044134720716,Idle
0,0.3469227960207975,0.1293321871318935,0.044171848691790604,Idle
0,0.3430972779629042,0.13767734090133266,0.042643631448271505,Idle
0,0.3004864320328468,0.14529923978335166,0.03716582543252394,Idle
0,0.3330241916935512,0.17214458020302384,0.036178565346422414,Idle
0,0.3005027083510608,0.15075863668725717,0.039631218913772435,Idle
0,0.360450972155123,0.13358351101330487,0.04226609990065338,Idle
0,0.33431131200942105,0.16923938851366596,0.042732342262129075,Idle
0,0.3304537069641233,0.1677136477155064,0.037497249818586965,Idle
0,0.2931909053137591,0.1489865040186262,0.03510871236414077,Idle
0,0.3061113418117402,0.15458681907512586,0.03921051509947506,Idle
0,0.34215221076473745,0.14916577063000086,0.038114993141000565,Idle
0,0.3152381235468159,0.13076889696446317,0.04459523013382526,Idle
0,0.302483606801996,0.14911403293489997,0.04233650189985424,Idle
0,0.375809456785632,0.13288974364555803,0.03977621971337206,Idle
0,0.33023815752326285,0.15672193112300384,0.03846976474953987,Idle
0,0.3634528806122392,0.14073436136619014,0.03400341324404379,Idle
0,0.2986579982522122,0.12872066738778265,0.035325136797452916,Idle
0,0.31281453426169104,0.14551872699675292,0.04290824256623025,Idle
0,0.33517854947278447,0.14161407289511388,0.03541745629467346,Idle
0,0.3025963093489478,0.13907217390731194,0.03851385780526703,Idle
0,0.3653935580333627,0.1375568195526192,0.03626714053831729,Idle
0,0.3588345144749809,0.14103327870002555,0.03521901106217318,Idle
0,0.33471146599525226,0.15152639758949976,0.03707338241462847,Idle
0,0.2949790194221836,0.16614512751170868,0.03735998816414953,Idle
0,0.32146856460753076,0.16995697409734706,0.043501457441368054,Idle
0,0.3785344291123663,0.13542022741488086,0.03989224028164899,Idle
0,0.298282785194186,0.15851849655066255,0.04138878280910741,Idle
0,0.3383383588854747,0.16336291939187472,0.03612515477070221,Idle
0,0.3204332750903295,0.1671345825527527,0.03835617333453306,Idle
0,0.3556900100682832,0.14765912834098513,0.044260332278719776,Idle
0,0.31076544343463597,0.1574101722876134,0.03912913996312841,Idle
0,0.3710802464352675,0.17194700938480942,0.043952582170503095,Idle
0,0.28172561791061096,0.16833404126802343,0.04329828144861516,Idle
0,0.32605483548899944,0.1702295323593026,0.042595834007476796,Idle
0,0.31407261571580075,0.15739922986740748,0.034205721224377116,Idle
0,0.3146475892632735,0.1550526602764207,0.03741440263619164,Idle
0,0.32606538175664374,0.13050005891684652,0.038560804883424414,Idle
0,0.2902121593407602,0.13837459027948984,0.03955263228910587,Idle
0,0.29009680004313004,0.1289500371023333,0.03508730529689779,Idle
0,0.3355863099871683,0.14830199772348637,0.034753382811301685,Idle
0,0.367377871300273,0.1587771835497497,0.04590973469970832,Idle
0,0.29495866757050654,0.17173639087140674,0.04384434107142471,Idle
0,0.3207654041889028,0.15245939653120819,0.034546407074424336,Idle
0,0.33934121618956453,0.15359644491292274,0.03446656881546947,Idle
0,0.28766391380324174,0.12907659995123497,0.03873649059498046,Idle
0,0.3594431497599588,0.14161619863521321,0.04357709155009438,Idle
0,0.36710861689440716,0.13507017563960297,0.037479519011500324,Idle
0,0.3099770626206687,0.15988871118614867,0.04508541265596202,Idle
0,0.3642414004255249,0.1622610245166666,0.03450334936064004,Idle
0,0.32170235325832175,0.1316635211673688,0.044664488226808706,Idle
0,0.2931258960515565,0.1428747470720453,0.04159359534731677,Idle
0,0.3263762312027555,0.14345339450761335,0.04377237281153952,Idle
0,0.30008946568923967,0.13581625913584025,0.04429671417814165,Idle
0,0.30375189527798013,0.1710846038907532,0.03759412238028031,Idle
0,0.34965734734980247,0.12919269642554299,0.04294826820525917,Idle
0,0.3081082274571564,0.14051257405045245,0.03977925413637618,Idle
0,0.28345641727494253,0.1669862931044675,0.041407328418924916,Idle
0,0.3243808410859019,0.13587449818139605,0.040508940455411174,Idle
0,0.35676600715508694,0.1386379229151347,0.03897605460813639,Idle
0,0.3460803023849323,0.15570874221228861,0.03658296215948022,Idle
0,0.3311055277979529,0.1322277104865791,0.04509581530311779,Idle
0,0.2908284015421702,0.14343841275954144,0.03665354335398926,Idle
0,0.3271041004428312,0.1671449311624091,0.034276961610371026,Idle
0,0.31379668606210953,0.14962243323567612,0.04557858713445756,Idle
0,0.3675635372397395,0.14831466405486288,0.03756267796886133,Idle
0,0.3599500863528996,0.14112301555081305,0.04164883231507714,Idle
0,0.3208772994758608,0.1482550165739802,0.042500634591811276,Idle
0,0.34575956382794465,0.15436178440496676,0.03690345903274264,Idle
0,0.29412132133797353,0.12971581816222624,0.04140594848821494,Idle
0,0.3057576183752975,0.12967385578695606,0.042667337922579485,Idle
0,0.3338382999150006,0.12831666363145977,0.045169694786234324,Idle
0,0.3137105103765069,0.1648773205789912,0.03685373710466573,Idle
0,0.32583059839954676,0.14797044573189844,0.03704135910982242,Idle
0,0.3712824532654713,0.14842415640031353,0.0441490677001446,Idle
0,0.32715999685769104,0.1341449327007112,0.034962954145365356,Idle
0,0.34357994688329657,0.142828671981851,0.04133434367330997,Idle
0,0.29221584868785233,0.14414278561651533,0.03701434295024217,Idle
0,0.31485555182605895,0.1408028667906585,0.03561413815902606,Idle
0,0.28750558405642995,0.12784678475995118,0.034968651513115706,Idle
0,0.2974383167968486,0.13405211961946167,0.04530480384348419,Idle
0,0.3486758325100427,0.1560809999203141,0.039309933635936746,Idle
0,0.2993874830009798,0.15967005194345907,0.04019334329751512,Idle
0,0.36766595010910497,0.13683475781263424,0.03587191584303065,Idle
0,0.29973663373481174,0.13908126115191957,0.04054384280840159,Idle
0,0.30836209905707335,0.166439827391379,0.03506175841192134,Idle
0,0.36672907504342417,0.1588486710213822,0.043251019382664964,Idle
0,0.30552840913334667,0.13707000565681152,0.042801119148587745,Idle
0,0.33889397898582424,0.15451725814680536,0.03552871708213802,Idle
0,0.3564790916205338,0.13340866268983892,0.03422778080562492,Idle
0,0.35368396313700795,0.16788631147012414,0.034101456416774825,Idle
0,0.3351217094507402,0.14076135741795606,0.04501690065278053,Idle
0,0.28683332893960745,0.14088391714083862,0.042357815280998176,Idle
0,0.36005108836084987,0.15632193192892532,0.039855248448676044,Idle
0,0.29123332879121905,0.14910410867477505,0.034541544969368905,Idle
0,0.3498692510275506,0.13635818102114214,0.03718827500484237,Idle
0,0.3530845555539598,0.14316117046223065,0.04254822357002801,Idle
0,0.31337680716037725,0.15322706673792694,0.03865465886194647,Idle
0,0.35495618884345576,0.14722999413427876,0.04388146792960176,Idle
0,0.351513269179507,0.15769114940266882,0.03959056573755322,Idle
0,0.33711606111788794,0.16429549478488414,0.03456993333016129,Idle
0,0.32358750645643,0.13261261026635993,0.03946135713088922,Idle
0,0.3150293776084536,0.14845368223521188,0.04126225821849157,Idle
0,0.3640420307749854,0.15212406414517932,0.03649279691716803,Idle
0,0.30081902273977934,0.14818338817797685,0.04374718130504055,Idle
0,0.3168615299726197,0.1330873962836583,0.045901663905555744,Idle
0,0.34826838121178144,0.16192263985361133,0.03810696536194766,Idle
0,0.33518481967104036,0.16537909324489347,0.03725855014972777,Idle
0,0.3333426244003084,0.17234749219230908,0.03758672534308726,Idle
0,0.28368462185689697,0.15648303586491694,0.04104006073158951,Idle
0,0.2949331116085504,0.14534277229333922,0.03686101862085412,Idle
0,0.35302998504997946,0.13396015010193976,0.03647616818215814,Idle
0,0.3586458433799034,0.13812306803920582,0.03695409060322085,Idle
0,0.3745358262367451,0.14590319239918284,0.03998128616301292,Idle
0,0.32412702966860096,0.13465707158285595,0.045530353100053225,Idle
0,0.30385062526735673,0.1381686646395997,0.03732790740751268,Idle
0,0.31398814686494725,0.1301003867674016,0.04484255093153632,Idle
0,0.3213044824342575,0.15692545502443914,0.04357899327770265,Idle
0,0.3497575803034502,0.15459372422839146,0.04494944452777027,Idle
0,0.3728442717719877,0.14430824906341805,0.04414661662508833,Idle
0,0.35266542515848615,0.14974795875848165,0.044643005736198005,Idle
0,0.357515165672611,0.15724820494768976,0.03447824704889802,Idle
0,0.3109079823031717,0.1340953002750787,0.034265987913143066,Idle
0,0.338016038624006,0.16903438660128026,0.045867271799025076,Idle
0,0.3229242283516266,0.14630246389382573,0.036401801847539265,Idle
0,0.3205275573929885,0.17094050225521898,0.03950804402259819,Idle
0,0.37331271361568674,0.15820832317678293,0.04251480885749295,Idle
0,0.32386370453726976,0.13184828601809756,0.03534286893969887,Idle
0,0.31114089533450917,0.12989927037476817,0.040196516881368584,Idle
0,0.36323356277744145,0.15923023607232617,0.04492517345499324,Idle
0,0.28357013726604074,0.13783416337751606,0.03683845024104352,Idle
0,0.2846357187059435,0.14681262095493605,0.037755352663703834,Idle
0,0.2977143564898104,0.12921571426962564,0.04341460753385522,Idle
0,0.2867634153153172,0.14861879381455728,0.04063054660702486,Idle
0,0.35753575952269046,0.13738763272558568,0.04373398835121788,Idle
0,0.2864147659539618,0.13089976098599457,0.03411679716006284,Idle
0,0.29104989004781656,0.14025758901792104,0.03614252113031734,Idle
0,0.3238626205234974,0.16639022752948038,0.03926643182503186,Idle
0,0.3222717438904656,0.1381293457533971,0.043310440844897206,Idle
0,0.2958006495700784,0.14705332530135523,0.03974750664765713,Idle
0,0.2907449024325102,0.14327959119910938,0.034731058786597865,Idle
0,0.29924965986803786,0.15866749030415936,0.042677352654385756,Idle
0,0.310927968034042,0.13163467135906917,0.04036324691389208,Idle
0,0.29815434280111064,0.1293622311051605,0.04278711763303196,Idle
0,0.36581605394727634,0.14127022908445608,0.042963831642419764,Idle
0,0.29063932571204953,0.14803426651654686,0.04581802413038665,Idle
0,0.36436208702044115,0.14638810414915082,0.045603613333378784,Idle
0,0.37293504609911104,0.14548026373684686,0.03949019953751762,Idle
0,0.36702814045132953,0.13294950068697173,0.04282363016613479,Idle
0,0.36190617635545985,0.1417197138036113,0.04440916755582526,Idle
0,0.34450968400507026,0.14610427885970984,0.038427444860866425,Idle
0,0.2833171940734609,0.1480407426683137,0.03796663749000094,Idle
0,0.3644321381002587,0.1564711611901707,0.03729775927146555,Idle
0,0.3519952344121276,0.14072428583272592,0.038852776733378364,Idle
0,0.29916024545348097,0.16753345090057395,0.04500717323144091,Idle
0,0.31121924932300576,0.1710352770076447,0.03842138044399107,Idle
0,0.36540712836644385,0.16300550287431173,0.04495564013233135,Idle
0,0.3243362859508392,0.13150314056255033,0.036591015722010026,Idle
0,0.2895441337828133,0.15372885014384416,0.04219459705478086,Idle
0,0.31179811375631916,0.16815126828329854,0.038333991161405095,Idle
0,0.28755775148621976,0.16637236088484947,0.04090777734863827,Idle
0,0.3627768677434165,0.1429292218317509,0.03570857415114398,Idle
0,0.28846748379502557,0.16234263595091272,0.03557560584766916,Idle
0,0.36963232071644797,0.1397998629272611,0.04403602961081747,Idle
0,0.33618474828968575,0.12959089857860684,0.03481651117212321,Idle
0,0.37387022153163885,0.15297450663314546,0.045961557859915396,Idle
0,0.3484548658765318,0.15124747644384484,0.03530589680979782,Idle
0,0.3393803399586364,0.17105817070709706,0.03936284875164644,Idle
0,0.284628247322479,0.16507082351643002,0.0454536456588262,Idle
0,0.35135598149069575,0.13878393097779537,0.04261059653126106,Idle
0,0.3434714203307089,0.13672036356593825,0.03618080441281183,Idle
0,0.290325735525633,0.1367257167855399,0.03901997817118429,Idle
0,0.3062442894637356,0.14778455955877104,0.038223640249914446,Idle
0,0.37778441936763063,0.14632837634076984,0.038043806264152116,Idle
0,0.2904445659463763,0.16031312323660132,0.039126923671724476,Idle
0,0.3760240458627869,0.1625763962513033,0.04451128138908745,Idle
0,0.3141267743349267,0.15645016187885638,0.035646769470609914,Idle
0,0.3544786863850476,0.14370407983871164,0.03776025029468673,Idle
0,0.36755704620153623,0.1451776607959531,0.03451212383205348,Idle
0,0.3376891178273744,0.14696371391096572,0.04401029199499708,Idle
0,0.3791467752718977,0.1395712750261732,0.036350858634888066,Idle
0,0.2994978663498491,0.1649475061891312,0.03923557370749834,Idle
0,0.29600267590825946,0.16062774818926398,0.036818027363772814,Idle
0,0.3516631927319324,0.13977312527358352,0.041963504519783694,Idle
0,0.32636914557062985,0.1278208537011064,0.04006686633862695,Idle
0,0.29488086374969574,0.1285824179977837,0.042374586339249815,Idle
0,0.320711040790291,0.1477401833388068,0.04441144767986191,Idle
0,0.3726342682003992,0.16710320248447855,0.04381322713740388,Idle
0,0.35104619673717724,0.16292243891900543,0.03515554813507655,Idle
0,0.35011849093144737,0.13007900102597122,0.035413933053036466,Idle
0,0.32652253566230904,0.1402683047769098,0.04447709470202499,Idle
0,0.35521461510988067,0.1436577244544813,0.03603293077554631,Idle
0,0.3751948092647989,0.15728820109246264,0.043678445937084004,Idle
0,0.29212765687184494,0.16786565944825593,0.0378729451787744,Idle
0,0.3421011029942353,0.1579348135319649,0.03704386716668618,Idle
0,0.3744256567408348,0.16501738312173228,0.04550657311039116,Idle
0,0.375734632661751,0.15237375447362947,0.036952946607821974,Idle
0,0.3148609846622008,0.15005547616863038,0.04544501628685224,Idle
0,0.2963501338058737,0.1700393433263412,0.04172374299915654,Idle
0,0.3280000325765407,0.15680410055050512,0.0384741905026287,Idle
0,0.37480217085690637,0.15133031498128777,0.03612528523326413,Idle
0,0.3240794769262106,0.14402468087192905,0.042234889776386335,Idle
0,0.3689225398670806,0.15912780547544317,0.03776838639544577,Idle
0,0.3148581034615907,0.14824484310376793,0.04420223668232404,Idle
0,0.30810295917902664,0.13952741173864017,0.04417289615034527,Idle
0,0.30734202901357605,0.14958986624167786,0.043542697458273195,Idle
0,0.3394835934022536,0.14805565028118256,0.045261628584687,Idle
0,0.3228782558789767,0.13951701338977712,0.042970251778069166,Idle
0,0.3726259163057032,0.1633540221626685,0.03785793574359903,Idle
0,0.28764366486750337,0.14977265931284678,0.040985619399563106,Idle
0,0.37005321329302027,0.15873066502228997,0.0412510554308949,Idle
0,0.37320883494852003,0.1296095395567331,0.034404595797326104,Idle
0,0.3790747232335623,0.15246611997062293,0.03422833202855916,Idle
0,0.3128540399108606,0.1646370195647062,0.03834370569933719,Idle
0,0.29859900854548527,0.13850603156362065,0.03957669080258631,Idle
0,0.3761946912538258,0.1557489350053509,0.04273582813857092,Idle
0,0.3196628145253026,0.15292584780345828,0.03609160440842113,Idle
0,0.34250121408259865,0.1574869286439862,0.03867525999253326,Idle
0,0.30710431894854234,0.16656448016964753,0.04267953339081952,Idle
0,0.34099006897163764,0.14990232986801252,0.04332271023187226,Idle
0,0.35868987662934065,0.1338928467508066,0.03524482601665348,Idle
0,0.3488619031984129,0.14701362307268173,0.042094205032605116,Idle
0,0.35654934238138064,0.17009766739999083,0.04219330392600029,Idle
0,0.36861966412418673,0.1564375567780845,0.038428088851546714,Idle
0,0.30324055336970046,0.1313326968276308,0.03402889714698616,Idle
0,0.3563953559195113,0.14380719862370753,0.0382530078173278,Idle
0,0.33898246165600476,0.16199369777758907,0.042680766844417704,Idle
0,0.37172552541121784,0.13613125352182118,0.03531823808421176,Idle
0,0.3155975677022254,0.15292332054959662,0.04316218815489692,Idle
0,0.3767936419160949,0.15370831988149186,0.040584693776454385,Idle
0,0.3449308566678923,0.16349053952848944,0.034285813294718824,Idle
0,0.3717519060194351,0.1314417386466803,0.04104889986538634,Idle
0,0.2882849868061363,0.15797294317328056,0.03536499351016855,Idle
0,0.29713136926347883,0.1642890691164015,0.038779180630003164,Idle
0,0.31039970430583613,0.15633960999552984,0.04172204551111781,Idle
0,0.34956521626901554,0.16213337987586365,0.04086760551445377,Idle
0,0.2993348586450788,0.13777639715413073,0.04045365421554793,Idle
0,0.29869381734035183,0.131577923166856,0.04489325045216278,Idle
0,0.3256616220694851,0.15700396565322272,0.03611104761719209,Idle
0,0.321441366774524,0.14725705338122977,0.0436702371840141,Idle
0,0.35938195769548253,0.15099790039943067,0.03842021415469358,Idle
0,0.3089355333515461,0.12848000915956417,0.044017506788586944,Idle
0,0.338323609777119,0.150722513727348,0.04288972542008313,Idle
0,0.28865608993156333,0.1419000967593526,0.044922784575369155,Idle
0,0.37139691932278995,0.16894366266666197,0.040636274144414584,Idle
0,0.3138031246484442,0.1653180858040908,0.04068015503762992,Idle
0,0.3423135623814951,0.1344949478761223,0.03409362298099497,Idle
0,0.3384472925903522,0.14332014442892918,0.036127403582430676,Idle
0,0.31373787787373275,0.16762300412163436,0.040162890696586385,Idle
0,0.29230581957719054,0.15207225969032556,0.035478988919082015,Idle
0,0.33389588177674234,0.13106493998449273,0.038218871872818694,Idle
0,0.3610513411936776,0.13405968875478153,0.038766885396922655,Idle
0,0.33863669130532,0.13213384856835877,0.03852711292041931,Idle
0,0.32418888950895164,0.12956304149349857,0.04120184441036211,Idle
0,0.3435628854087813,0.15287497815718393,0.04123990739498156,Idle
0,0.33196431373766894,0.15130454926189568,0.041742751934051574,Idle
0,0.3609733114998638,0.12975071115157852,0.03475841790515898,Idle
0,0.3642554802342039,0.17078816834179616,0.034943154578505,Idle
0,0.3616269099259779,0.1466433140739916,0.03953383717378792,Idle
0,0.3617478979259391,0.15518029022427443,0.039410381512410136,Idle
0,0.3653081133880372,0.152927432195432,0.04059936204379108,Idle
0,0.36831847272872287,0.14706920013288444,0.04353197303652007,Idle
0,0.36813207780790974,0.12974017375472224,0.035418350276114875,Idle
0,0.3295021509680681,0.172057708750125,0.04155941293943319,Idle
0,0.2836049557152476,0.14643173550273156,0.04071897461811382,Idle
0,0.3084825796745576,0.15730498912651664,0.035041117210418145,Idle
0,0.3182279442134504,0.17001082892739028,0.04106570961486325,Idle
0,0.3423215857893812,0.15093491024813438,0.03857183769096979,Idle
0,0.3486951085987939,0.15873921592515755,0.03711359410958142,Idle
0,0.3224909157202921,0.1499971056036914,0.04092456922307707,Idle
0,0.31555684999319594,0.1389030799633964,0.03989091149169589,Idle
0,0.34034762859435314,0.16473290583373906,0.04382846461311513,Idle
0,0.3098675297715679,0.15208851252918698,0.03584520757305413,Idle
0,0.36245482124687534,0.13560122312168607,0.04596998007948597,Idle
0,0.3009979156676121,0.16569486211495135,0.03496564085513131,Idle
0,0.3420330326622277,0.1301869767880009,0.04023599376610926,Idle
0,0.28743692721829195,0.1621412399657911,0.04104416079654742,Idle
0,0.3500107372548352,0.13249799755097874,0.035241792527515144,Idle
0,0.29267903494350433,0.1689189783460007,0.04599333696667076,Idle
0,0.2836350618651303,0.14963926040552158,0.03806286703423837,Idle
0,0.3468588574987443,0.16625483558940188,0.042401043044442144,Idle
0,0.3587596491228568,0.14612990271357076,0.04261573343344028,Idle
0,0.3285887735423348,0.16085506105407912,0.037527598508442325,Idle
0,0.2936163953787613,0.1686514275080663,0.03621010852162345,Idle
0,0.3406333808921473,0.16271927929349755,0.03485932063023274,Idle
0,0.3710759461046359,0.16685070194306578,0.04279713203347585,Idle
0,0.29925692473918286,0.15656940527434868,0.045019945067211554,Idle
0,0.37918216104479974,0.16131059722402594,0.040140721249785155,Idle
0,0.3606951631341648,0.16359357057709523,0.03955201082721636,Idle
0,0.28745915148676054,0.13193413564798717,0.036747576493888816,Idle
0,0.3647760677363958,0.1403564495075861,0.03907907908914375,Idle
0,0.3262438205797687,0.16471641964143807,0.04366833979976369,Idle
0,0.31276370280271903,0.13287962445571058,0.04200079592138977,Idle
0,0.3278519048214823,0.1607104531403841,0.041816428006366826,Idle
0,0.3658389212303295,0.1699846310610708,0.04082350445438203,Idle
0,0.2895350375573533,0.16925010725939618,0.035353063690180216,Idle
0,0.3063529976882188,0.13965161569468326,0.037595305830914694,Idle
0,0.3294158777839693,0.155814384597516,0.04114316565853251,Idle
0,0.3333198461306235,0.14553383152731933,0.040728419222159466,Idle
0,0.37493735819018814,0.1315425615839824,0.03655247311828461,Idle
0,0.3198580556986154,0.15382326480423095,0.0433294047297157,Idle
0,0.3556693942167238,0.16688830380153688,0.036277752623120836,Idle
0,0.3336653081827836,0.1605406420237814,0.04547529793004016,Idle
0,0.3412056656224519,0.15011561724989889,0.03401809415290198,Idle
0,0.36572237590735623,0.155579670803364,0.0350827775463135,Idle
0,0.36942535008636457,0.16530979804047166,0.0368835607330095,Idle
0,0.3593598466030249,0.14874795089931322,0.044750667219185615,Idle
0,0.2960345894821666,0.1433479245108197,0.044463929435568934,Idle
0,0.3175684309669908,0.13642800867221708,0.042184774860933257,Idle
0,0.3280659855830902,0.1423853892209319,0.04435138656747302,Idle
0,0.3751681414839611,0.13576651879200888,0.03915043062148132,Idle
0,0.37836645786027967,0.17097319220695928,0.045621726295889536,Idle
0,0.3028950607222155,0.1675461351349352,0.03547300463413122,Idle
0,0.3610777632560351,0.13697346315835182,0.0434291045427306,Idle
0,0.3092733349350917,0.13848668094744546,0.035758133164471816,Idle
0,0.310953021987506,0.16478051417194836,0.040827032206296396,Idle
0,0.3677491535586439,0.14308262143210196,0.044988074319988,Idle
0,0.3067501807060212,0.13497517079085053,0.045943658090081545,Idle
0,0.31718957426583705,0.13564276092875124,0.04083969103207924,Idle
0,0.34361041038214424,0.16940058747831446,0.04484886595695024,Idle
0,0.35265714693865424,0.14996260563831038,0.0396983510231831,Idle
0,0.3424677461940787,0.16966551110944567,0.04287788543921133,Idle
0,0.3556013655844912,0.15345346422906908,0.04514170794992252,Idle
0,0.31171705074621436,0.15966538690643306,0.044970787385601806,Idle
0,0.31514038236226266,0.1690406245912074,0.040058636078580526,Idle
0,0.2997107626568818,0.1598444070300577,0.037646333702103844,Idle
0,0.29640044712505614,0.15288281160031397,0.045698069141129824,Idle
0,0.37655880406094655,0.17189557836642896,0.0352761778632431,Idle
0,0.32774388217833783,0.16073565965125505,0.04022156135114115,Idle
0,0.2948398229515777,0.14866937154982793,0.03813168198183009,Idle
0,0.29145993562832767,0.14136288464784635,0.03601821982644841,Idle
0,0.28758811545097246,0.14315313764686954,0.04407336707274036,Idle
0,0.33924876968326745,0.17077744738211562,0.036667675594869324,Idle
0,0.35102197121198736,0.1577055699024532,0.0434515337659172,Idle
0,0.31534886814105795,0.15448864580852378,0.03600774485240165,Idle
0,0.3736182609062317,0.1401750367232814,0.04259912839624297,Idle
0,0.3789575768752864,0.142651507123564,0.03930736723062215,Idle
0,0.2904630034909464,0.14141840977574446,0.041509423451983406,Idle
0,0.3327962753931911,0.1637502572706844,0.03861178709143153,Idle
0,0.344064003919797,0.13064883300725072,0.03460095507514759,Idle
0,0.34729329730182995,0.1590971039290179,0.04447501868706387,Idle
0,0.3575279016340979,0.13216239362510554,0.043649443944241105,Idle
0,0.3687268130762607,0.12817889034443222,0.04451950058198322,Idle
0,0.35877286840878114,0.15164388427945097,0.035633667001955284,Idle
0,0.2940789167022006,0.15959862917517073,0.04514033453375202,Idle
0,0.32138824239134206,0.17150461581060517,0.0431421554892062,Idle
0,0.3294190976072642,0.15566658157590532,0.03826912948726879,Idle
0,0.37663095452190304,0.15137524617258086,0.04228074225972209,Idle
0,0.31402380591783857,0.1329816534079896,0.03916218799881407,Idle
0,0.2857799188880407,0.12818036887721984,0.04551563648515911,Idle
0,0.323982610102463,0.1540865205786797,0.045342412454014595,Idle
0,0.29637426041050763,0.14406977786590397,0.04444759823892475,Idle
0,0.36438394705273364,0.13109913979396123,0.04205251175502027,Idle
0,0.36872587835671805,0.16643824986506886,0.03898931292638141,Idle
0,0.3198180485097972,0.1547124682592297,0.04101938085302079,Idle
0,0.3154229559181922,0.1718232656632227,0.03550680058265206,Idle
0,0.29664458404062777,0.13051807027136836,0.03928134470176726,Idle
0,0.29657367405602514,0.15686446457370004,0.04517065612634896,Idle
0,0.34216886469861063,0.1484174736207034,0.04513232774272429,Idle
0,0.37149287142919585,0.13541115922587274,0.03518683942090931,Idle
0,0.2981061315752804,0.17011867528615865,0.03949574782477783,Idle
0,0.2876720058045449,0.16745068819281375,0.042623527174668746,Idle
0,0.3350705348530852,0.15865117402588277,0.04215807852089353,Idle
0,0.30647142721193293,0.1475259092577807,0.041090700834946786,Idle
0,0.3161178363548396,0.14067790996185578,0.03634593250197076,Idle
0,0.3029543224654738,0.13495659132392177,0.039802137850784396,Idle
0,0.34688310841906883,0.14136482580748644,0.0454520984960984,Idle
0,0.3655270273357984,0.15284961240734407,0.035234296274309414,Idle
0,0.35424838956217947,0.16944871092816993,0.040742731694251126,Idle
0,0.35686936985071727,0.15401540221672605,0.04577331107143575,Idle
0,0.367701616183842,0.1652301554294497,0.03798060950557076,Idle
0,0.3351477007088684,0.1572282399484077,0.04301041196343777,Idle
0,0.37649569570508495,0.15265275235215484,0.03832655349920266,Idle
0,0.37619119069846174,0.12797111740177927,0.0385751048941778,Idle
0,0.340078682281027,0.17066757257314089,0.03632458556998869,Idle
0,0.35631017820533273,0.1459931800154581,0.039857653567810306,Idle
0,0.3643490260805269,0.16509332319183959,0.03646046083731054,Idle
0,0.36334610798530664,0.15719981972999117,0.03918147823643997,Idle
0,0.3551838950563786,0.15264491281459644,0.035966468424590205,Idle
0,0.3731344081366643,0.16123250727176783,0.04461281741504653,Idle
0,0.3112168485393323,0.15926404637498923,0.034365643714435394,Idle
0,0.35742937590789114,0.13293027832585563,0.037268307367553974,Idle
0,0.3255658307413354,0.16822032990841215,0.04560847914848681,Idle
0,0.30995310838109863,0.1512460335534713,0.040235510140478506,Idle
0,0.34250038360420443,0.15778751504714458,0.034499535650096336,Idle
0,0.2850429603330032,0.15173497662884364,0.03871040723010876,Idle
0,0.35169209614885194,0.1397595842667693,0.039079330854095186,Idle
0,0.31845066108326436,0.16040918392946216,0.04180613351579846,Idle
0,0.33446374385649935,0.15039678322902555,0.044596507385241485,Idle
0,0.3179667912899159,0.14231855735838017,0.038925786501112496,Idle
0,0.35776877392101125,0.15017181360568804,0.04184301405009878,Idle
0,0.3696216657824915,0.1393553513339584,0.04422414612185959,Idle
0,0.30098292708834706,0.1660857779757286,0.036762311156900596,Idle
0,0.2950341847498869,0.14714336709012485,0.03738135818482615,Idle
0,0.30360966165605685,0.14639266829027864,0.03882504583901073,Idle
0,0.36753878568728837,0.13284636055094956,0.040114509251388035,Idle
0,0.3624734872925364,0.13603597179008015,0.03647917070481875,Idle
0,0.3668195171272318,0.14141456458092777,0.042856718570660784,Idle
0,0.2927565968784895,0.143862593150246,0.03857346861670722,Idle
0,0.2859754061485075,0.15036169296604704,0.04119147404951206,Idle
0,0.3351443578611277,0.1499955630787154,0.04344825907329861,Idle
0,0.33950218813326677,0.1388554339072894,0.04105172581773732,Idle
0,0.31254891906004734,0.13138195589481422,0.043751117084105104,Idle
0,0.34279356025755414,0.15706220626181114,0.04135114071209256,Idle
0,0.37850926091713194,0.13414393403860975,0.04184873953535559,Idle
0,0.35003749648301546,0.15059742665148385,0.04545860084642042,Idle
0,0.2856931369444739,0.16945847087390903,0.03579889806257609,Idle
0,0.2881411392747569,0.1305357492006711,0.03823726501192674,Idle
0,0.33489265861295164,0.1342689376155806,0.04079884106019597,Idle
0,0.37457822983016004,0.16494740594314483,0.038869098329163826,Idle
0,0.3617279960149873,0.16444637699367579,0.039497559964883015,Idle
0,0.3204055543917425,0.17032200539133566,0.04189611827956201,Idle
0,0.3672010098124555,0.1348887601690161,0.036684458909022596,Idle
0,0.33584823675390496,0.131837289944546,0.0367897529499322,Idle
0,0.35701830552517383,0.1358361655441016,0.03975295859973277,Idle
0,0.3097929644339017,0.1591298497498464,0.03576891483183936,Idle
0,0.35098292135567855,0.1386100634474287,0.04071993069035044,Idle
0,0.34791567802357537,0.14809772143199326,0.03712871800163325,Idle
0,0.297555466994185,0.1336135725459452,0.03676434304828422,Idle
0,0.3233184976881369,0.13993113097569143,0.03676415185266998,Idle
0,0.2940647939372841,0.13997469675677007,0.04588865336811668,Idle
0,0.3296888495428704,0.14298069087765666,0.045542837658291965,Idle
0,0.2891193847539494,0.14661733666245444,0.03972592459886847,Idle
0,0.34140600066023746,0.13491394083753697,0.04027055363076624,Idle
0,0.29324878509530433,0.16053994413812736,0.03497980486951648,Idle
0,0.35972449745512863,0.1680595796404011,0.03405094675413533,Idle
0,0.34990469840068794,0.17220909738144988,0.034617925823929356,Idle
0,0.29257189752156737,0.15959887244493096,0.039772640148289455,Idle
0,0.3152449501359725,0.1401538644589073,0.04286151221522115,Idle
0,0.33909550045792947,0.14086402592823508,0.038629788312976865,Idle
0,0.3260893815685804,0.15930298649253177,0.03444394544534713,Idle
0,0.28289139547802206,0.15339415112921578,0.03893044603550956,Idle
0,0.3427662289966455,0.12875320438535218,0.03620022332962229,Idle
0,0.32852893850435455,0.12854387776439996,0.04520795183951091,Idle
0,0.29368821530519956,0.14777063846100413,0.0427411289808493,Idle
0,0.3241548684500012,0.13555410419816386,0.03478911260812488,Idle
0,0.28650625173603833,0.15449157919888712,0.03758785844076702,Idle
0,0.37802577102908613,0.16681968393152172,0.04360363152731827,Idle
0,0.3576298622791614,0.13761609928650448,0.04082608192399399,Idle
0,0.34329499461601876,0.14324392879820366,0.04062001553718269,Idle
0,0.3016224989745657,0.16065585208687153,0.03564473715831219,Idle
0,0.2963227526740609,0.1468516079668542,0.0431693295945032,Idle
0,0.3642707297770494,0.1519196021388619,0.045434851461604746,Idle
0,0.36562939793552407,0.137497025590837,0.034351122832012984,Idle
0,0.29940895253084976,0.16041479426564,0.040768405039322636,Idle
0,0.31790072137219927,0.15567396780772816,0.03879924190145977,Idle
0,0.3060092929944709,0.1415787507849199,0.038004576082680215,Idle
0,0.29651757161322934,0.16137436529790722,0.03908416254972014,Idle
0,0.2872221852258,0.14173096863686266,0.044675415288112016,Idle
0,0.37804214993018825,0.13318165279664007,0.0443270503885184,Idle
0,0.3362639684035829,0.1392003771042816,0.03826972359814547,Idle
0,0.344264619477807,0.13499878714192362,0.03643490272766852,Idle
0,0.3404705730941099,0.1562176745202453,0.03841352602503595,Idle
0,0.3614885972768754,0.14681752099111334,0.044260627205473836,Idle
0,0.3428693044914491,0.1700929361534526,0.04392993585983252,Idle
0,0.30995143724256646,0.1578043597653754,0.04185585801737867,Idle
0,0.34915125960055976,0.16355419478032604,0.04291594075459734,Idle
0,0.35575251948468495,0.1526837153240033,0.04172415063717157,Idle
0,0.3211530920391888,0.1511267079414738,0.035030845472246525,Idle
0,0.33068542399831113,0.13426654443971067,0.04444364965017664,Idle
0,0.3199308913223003,0.12975400605640156,0.04355873053044431,Idle
0,0.31470261283702994,0.13379925159420508,0.03475889860180147,Idle
0,0.3536571881446706,0.16188771143829908,0.04203085272419937,Idle
0,0.2888800565042819,0.15226463446806723,0.03849522340766341,Idle
0,0.29322487537635034,0.14492503504405652,0.04180691354049963,Idle
0,0.3667523139342609,0.15910204436279224,0.04221288684006387,Idle
0,0.2827471726508519,0.14225015846912997,0.03427407757377736,Idle
0,0.30491237807516913,0.16423470115405173,0.04579185222692983,Idle
0,0.3002482364894923,0.1600430545703431,0.042426421513805615,Idle
0,0.32986304310524983,0.14549181061909414,0.037408664465362874,Idle
0,0.3675122511487763,0.1441512902328919,0.03673409413829983,Idle
0,0.35151308137100806,0.15162238947227902,0.03669013021955372,Idle
0,0.2901213820797989,0.12843069835371163,0.04114141510958005,Idle
0,0.31097848120167143,0.13274578555490285,0.0396978514080249,Idle
0,0.3598315266359086,0.1630756468568478,0.035763623400731685,Idle
0,0.3508023622342914,0.14712017305590355,0.034631115555655165,Idle
0,0.3043070640622711,0.15118931072299888,0.040734716248720444,Idle
0,0.32789831131482156,0.15518149697414116,0.03430305877739188,Idle
0,0.37031597532753185,0.12753652770353746,0.03576890341079587,Idle
0,0.3057109456692703,0.17110693536211313,0.04555089090745555,Idle
0,0.29511004153973314,0.1401732425297361,0.0348425313414817,Idle
0,0.29503290478694505,0.16908337067833068,0.034113635227385426,Idle
0,0.365705589326496,0.16834657565291278,0.03516015484632531,Idle
0,0.32771660302543343,0.147244591549309,0.044349310706450366,Idle
0,0.31113932941224354,0.1398352156481732,0.03905369857910075,Idle
0,0.33896492004611356,0.13012431686363693,0.036824074617600004,Idle
0,0.37907810757097354,0.16079790839080196,0.04080000270666062,Idle
0,0.3791536885031932,0.16800154885005023,0.035253585153123074,Idle
0,0.3502796547896654,0.16658534526098487,0.041884282898855804,Idle
0,0.3292263155482343,0.13152416449400334,0.042414741799059734,Idle
0,0.29396016164419847,0.1710547686661954,0.043639973994200346,Idle
0,0.35568394446180185,0.1482251374058929,0.034135450261261115,Idle
0,0.29188866733397756,0.14481695952745594,0.04020802839305509,Idle
0,0.36717378951197577,0.14163162200347604,0.034434671899053346,Idle
0,0.3103389103510238,0.1682547963549142,0.04099374611843762,Idle
0,0.33090526285700667,0.13600447752759326,0.03624427187495215,Idle
0,0.3735967540577828,0.16942650285869118,0.038688219644552685,Idle
0,0.2986176340969911,0.16555461954895534,0.03575827255586043,Idle
0,0.36349749526228003,0.1389584408493801,0.04366317594760259,Idle
0,0.3207291142624055,0.15934370710442755,0.03622241570468402,Idle
0,0.2851707834621307,0.14033272124129575,0.04294759339242703,Idle
0,0.3789010347837855,0.14762882509613676,0.03931327263863406,Idle
0,0.2936359915297391,0.1533129718745062,0.04412860150067233,Idle
0,0.2837859604806873,0.1455295362890335,0.03684590382111173,Idle
0,0.3241278773630799,0.169922471545654,0.04057701715230297,Idle
0,0.3726237367936267,0.16641338440919717,0.0403915495849346,Idle
0,0.2859226375402951,0.17168235319773237,0.04422012899698412,Idle
0,0.3116333446263444,0.14935300719650785,0.044215627084607585,Idle
0,0.33790191005561415,0.14011768681411257,0.04530427081794345,Idle
0,0.3655769548465788,0.15165686222651856,0.043943247279431934,Idle
0,0.3057563491412413,0.16207413840910848,0.042934026993918656,Idle
0,0.3337508884969428,0.1337961432911212,0.03552761505173764,Idle
0,0.31691994934620354,0.13869413177504067,0.040830426801359336,Idle
0,0.3075618219399846,0.12856278781428507,0.04245499479919266,Idle
0,0.31348717289527167,0.15494160836255266,0.03877966038601024,Idle
0,0.37107789847210376,0.13828273254836895,0.03867474566049242,Idle
0,0.37076327755644006,0.1388617551085685,0.038800288615947545,Idle
0,0.28897121749735305,0.1311230035648018,0.04546620266729235,Idle
0,0.36053513378154334,0.15674825539127415,0.041281192589070655,Idle
0,0.354617147335529,0.1640648642687223,0.04305235979438365,Idle
0,0.34310004105091724,0.13522548978883406,0.04339994861469359,Idle
0,0.3074122437924708,0.13723410914465187,0.03473896388616585,Idle
0,0.35415699348606816,0.14280805219280537,0.03826714396535299,Idle
0,0.3148319121732377,0.13343878516526492,0.04069311344218091,Idle
0,0.30833193870683173,0.15598116338130638,0.04549677464735274,Idle
0,0.36545731312980545,0.1438152883917378,0.035065877403645106,Idle
0,0.3283255529223998,0.16819862125247165,0.03517283434603296,Idle
0,0.3515673056636613,0.12765456970049416,0.04386516240849926,Idle
0,0.3472529478473807,0.16755660496401845,0.03926687151340496,Idle
0,0.29385049614012265,0.15437129269667985,0.043531020075357446,Idle
0,0.3574648495772182,0.16512738819453507,0.03586261670777732,Idle
0,0.3207997073884579,0.16404011352922973,0.038096315903680546,Idle
0,0.34552591421908324,0.15690194125654292,0.03906204681538504,Idle
0,0.3186528990712999,0.14728200241243128,0.03748654211821208,Idle
0,0.30062081385580325,0.16127962301371687,0.036039822490387605,Idle
0,0.31457634917659155,0.13218910365366962,0.044549484737388546,Idle
0,0.342793288374006,0.16648165800902792,0.039064058030850245,Idle
0,0.2841144336708007,0.16004184481637718,0.04009725084120013,Idle
0,0.32625068334485596,0.1412611227604972,0.039367396141855165,Idle
0,0.33987483859499934,0.16848897703953777,0.04437667108508695,Idle
0,0.3449309211441308,0.15441957921073377,0.04214938466224304,Idle
0,0.3145409559682699,0.1602366190806144,0.04212694558873619,Idle
0,0.3668804422148329,0.16688206385072218,0.04146964844873021,Idle
0,0.3678890732659733,0.14863407675117818,0.04484669703593843,Idle
0,0.37570864171337975,0.15124348025416376,0.040653040518472655,Idle
0,0.2958564558050017,0.1704743482263883,0.04163513637741879,Idle
0,0.3658943712485837,0.13065751343682183,0.04577994300073245,Idle
0,0.3543110733136536,0.15860542810856748,0.035467867327642594,Idle
0,0.3725058050179335,0.14180780144818242,0.042344563643545205,Idle
0,0.369605068446312,0.1698964887387612,0.0354583242888646,Idle
0,0.37771542432177746,0.15349610934715144,0.036166565196483764,Idle
0,0.34543186261137265,0.13731626224583765,0.040460342768764104,Idle
0,0.34424566179686855,0.16568161897533912,0.03576183098702946,Idle
0,0.3270062853937339,0.17143170952108538,0.04170605044381296,Idle
0,0.29812269922667606,0.17176058052939025,0.03577646311799399,Idle
0,0.30772019911129445,0.15721606901496882,0.03626300445752977,Idle
0,0.3444099921975291,0.1469601222253946,0.04540213643902801,Idle
0,0.2894470237677262,0.14859798069177507,0.035488912948957174,Idle
0,0.3312208340109165,0.16296414244472984,0.044802235438389355,Idle
0,0.34010888006226975,0.14166550998220845,0.04291524860636733,Idle
0,0.3407163325625779,0.13279140308814635,0.03438759601925114,Idle
0,0.3749409233592192,0.17053452466558827,0.03997979052219216,Idle
0,0.28586903787260365,0.1638280799121384,0.03426414096492479,Idle
0,0.35332358856384993,0.1356740888641963,0.038812213793342785,Idle
0,0.356358265397242,0.14618146353235995,0.03957785410885019,Idle
0,0.3424648074731509,0.17207119139120716,0.037737035383670785,Idle
0,0.3325045949678516,0.16851958005930806,0.04487651067118975,Idle
0,0.30001077889001254,0.1568393217942586,0.037929210786102244,Idle
0,0.33844953503875297,0.1292997965343484,0.03568440735882819,Idle
0,0.3758091921396829,0.149070137013914,0.04329257598902671,Idle
0,0.3162617460456781,0.17107710597162926,0.035250248339922366,Idle
0,0.33017532583673875,0.17068823574611114,0.03637851341433487,Idle
0,0.3083459350014023,0.13227083082736457,0.042844539096050085,Idle
0,0.3319744777122503,0.15702345772209597,0.04063238157913169,Idle
0,0.3135275870165542,0.14467114913376705,0.042937923682402665,Idle
0,0.3321757716901267,0.159460990096187,0.04590797425665075,Idle
0,0.37233536115136573,0.16670921981027853,0.039358118651566375,Idle
0,0.30474395627611994,0.15269182969463987,0.035114235271990556,Idle
0,0.311862810508031,0.17054813566289886,0.04095680602232052,Idle
0,0.325478053452718,0.12975843945069768,0.04562045931534447,Idle
0,0.3479026793711289,0.1307260372645027,0.03415088225341911,Idle
0,0.32151751877552054,0.13989043096802464,0.039512362241856884,Idle
0,0.34126988283853643,0.15024967148134621,0.0384875583819703,Idle
0,0.3305309178537189,0.1538964104668164,0.04224789233055647,Idle
0,0.31348331733964707,0.16227663260529454,0.04158357367151382,Idle
0,0.3708776548878174,0.1586417814253805,0.0399274430941624,Idle
0,0.3081280060165578,0.14403333513840186,0.04372740486354,Idle
0,0.3767818752972932,0.16555196765464278,0.04476950041412687,Idle
0,0.30153619343189786,0.13473632395160634,0.04229655266100957,Idle
0,0.36757624025517327,0.13610567905053367,0.037652541519710446,Idle
0,0.3329769246249913,0.17235839619748544,0.04470090575161653,Idle
0,0.3056919787708959,0.13266946516182535,0.04367372978938248,Idle
0,0.3497017678750252,0.15905396753042386,0.045704275654254264,Idle
0,0.3395303467417794,0.15469906264009617,0.04323832676511668,Idle
0,0.29940303276696345,0.16039989857309886,0.03551814959210297,Idle
0,0.3421818354432064,0.14267141102201977,0.04310991474440225,Idle
0,0.3779898280978327,0.1532839451637303,0.04474231947589554,Idle
0,0.29634414320040386,0.16687576859099412,0.04050196503898431,Idle
0,0.2907709687552803,0.13895224297680053,0.04434161823175887,Idle
0,0.3639054677143531,0.1597047393943794,0.038101777995796636,Idle
0,0.34924798408253876,0.13637053441392727,0.03653059897872303,Idle
0,0.34536319364068213,0.17243855502810412,0.039508015894981895,Idle
0,0.33407746202608735,0.15314262917428226,0.04504637038304993,Idle
0,0.32321023084150996,0.15407792704406117,0.0365673414831564,Idle
0,0.29990886519320736,0.1391896904261574,0.042114600540860005,Idle
0,0.29515025611745727,0.14812470565967054,0.03486881701636263,Idle
0,0.3591907528909741,0.15081366724760825,0.03857624596860103,Idle
0,0.3446134704043908,0.1579059895720055,0.037453311326072866,Idle
0,0.3596491115142702,0.13472356195314883,0.04380375337956839,Idle
0,0.31084430611612696,0.16695324144970927,0.036188825547957396,Idle
0,0.3485058970801162,0.13192728670218953,0.03588836982924112,Idle
0,0.3069492223403412,0.13616597758178975,0.03610252850880603,Idle
0,0.3262328492708909,0.14107011502875275,0.04145559862914929,Idle
0,0.2844367274002238,0.1592560246842694,0.035176850346761074,Idle
0,0.28340463887325656,0.16833346019492956,0.04370365184100537,Idle
0,0.2991549983645122,0.1403312523967363,0.044430805649720365,Idle
0,0.3159159261988717,0.14058647857405773,0.03847579881448095,Idle
0,0.30407571389143523,0.16300816449652075,0.0377255333450889,Idle
0,0.37904391376829893,0.15039097200382104,0.04224160632568717,Idle
0,0.309953978829932,0.1299276471612617,0.03565331363303344,Idle
0,0.3568933023021069,0.14298863877060744,0.03723985426784254,Idle
0,0.3178515412614484,0.15379198505080802,0.034067259733640665,Idle
0,0.3637650274280578,0.1489844403321446,0.036160163499649255,Idle
0,0.36989022948129663,0.13871426994048752,0.039991768800366964,Idle
0,0.30809371384752204,0.14586000848939132,0.03859193304431945,Idle
0,0.33941026317038925,0.1573280169131354,0.038758837953257616,Idle
0,0.2998345240052684,0.13785507823412593,0.042271879121041585,Idle
0,0.36047567577701733,0.15006483229133158,0.038546975490258026,Idle
0,0.3548038854826343,0.14855349309998744,0.038169624040112725,Idle
0,0.36170550380558714,0.15939434893187585,0.045492223729803154,Idle
0,0.29488095636128747,0.143386625468146,0.035818335050465326,Idle
0,0.29102341754998723,0.1512625935091174,0.04539608680296627,Idle
0,0.369095778509207,0.16693031108974085,0.04217914233621856,Idle
0,0.29256747555865453,0.13000912920504507,0.04583234228974761,Idle
0,0.3065212364720301,0.1421278435247492,0.04481005210470156,Idle
0,0.2956486657470598,0.1585016642039149,0.035062216838483415,Idle
0,0.36168245900573687,0.16169605113900903,0.04305166223231442,Idle
0,0.30448159914469003,0.17010185364183034,0.03846908040002709,Idle
0,0.3288227861158066,0.16886926109209682,0.03696704742899405,Idle
0,0.2811592472283459,0.15669980063872666,0.03987267527165285,Idle
0,0.32077626636037204,0.14187583262730444,0.041980087995441354,Idle
0,0.29923541035498086,0.13606279335794574,0.03753197769527534,Idle
0,0.3610785168756585,0.1328580361424222,0.03832863332900239,Idle
0,0.33825753070087894,0.13552019802587775,0.044272470222185965,Idle
0,0.3077345894882684,0.16464060439882416,0.042339730928738536,Idle
0,0.3389016536750695,0.14585478288023554,0.03625023901101778,Idle
0,0.3624661802162699,0.13270867719182386,0.044306185955969205,Idle
0,0.3406998065952063,0.14618482609011887,0.03439246138563864,Idle
0,0.3071556202974451,0.1356203446779044,0.036468975443254024,Idle
0,0.3472065049848482,0.1360257169374554,0.03882431376545936,Idle
0,0.3059320356043572,0.14627801181117273,0.03984079742489313,Idle
0,0.34882099597864263,0.16369239896369056,0.04009927042120643,Idle
0,0.3077762272190956,0.12955501295165947,0.0368379947908491,Idle
0,0.3556028247575585,0.14088143796006347,0.03513712886868554,Idle
0,0.3199175570497634,0.16512053862469875,0.04436672543155434,Idle
0,0.3646555131046534,0.1703363693161655,0.03533757562751918,Idle
0,0.3524303780645844,0.12779307944267046,0.044564246996086826,Idle
0,0.3757855546856779,0.15324673964435123,0.04337474128167832,Idle
0,0.3380485648888952,0.1550471659860596,0.03786924608988975,Idle
0,0.31130011506408534,0.1353901832587192,0.03627363399488567,Idle
0,0.3541512404729132,0.1348566871363483,0.04536220218288437,Idle
0,0.30358141230349867,0.16197881247756402,0.04460817091879795,Idle
0,0.3416816799980082,0.13011620395778792,0.044635675442750336,Idle
0,0.3281728176312653,0.145210258969541,0.03944705667221706,Idle
0,0.30776256807156355,0.1599498704763186,0.04178134284415937,Idle
0,0.37879534694011524,0.13246183892794644,0.03535903710448674,Idle
0,0.3479223420390968,0.17231924309737756,0.03400081841619098,Idle
0,0.35016214873295154,0.16885214927055564,0.040064769752338074,Idle
0,0.3488551306789277,0.1559871659977594,0.044719860139710015,Idle
0,0.35287980899566945,0.15988830497139975,0.03941306385231528,Idle
0,0.3640491862213231,0.13002840250841646,0.034173498105476756,Idle
0,0.3341459058975858,0.1487922292576607,0.041354418402182305,Idle
0,0.3194877995336863,0.13292881752456628,0.03834620686537851,Idle
0,0.35837917634727895,0.16702532993154035,0.043629459491676494,Idle
0,0.3437345469421011,0.15686297017654915,0.04204722100662278,Idle
0,0.37807168128566043,0.14064633750006486,0.039428726935900764,Idle
0,0.34358509977282053,0.1345157499076772,0.03748014483456377,Idle
0,0.36732971611291665,0.145197220375474,0.03909602982139222,Idle
0,0.305898760114927,0.12843364048040717,0.03744632976076932,Idle
0,0.2873903001648299,0.1476701739015869,0.04316245945147406,Idle
0,0.3712817275100365,0.13655504060352583,0.0346375570412705,Idle
0,0.3693304104127863,0.15922507797450713,0.03581860122390668,Idle
0,0.3397424733460465,0.15545382791197598,0.04396531689014314,Idle
0,0.3565152416292399,0.1580919141872394,0.04499203254375043,Idle
0,0.3078695034078694,0.14849198416765932,0.03651865018443154,Idle
0,0.30232251269115756,0.15755625325007008,0.03670940841386378,Idle
0,0.3601395222541614,0.162984680444236,0.04437598951677452,Idle
0,0.37273334985658746,0.14478241769931066,0.036348335394853847,Idle
0,0.369598874989297,0.1452509486403792,0.039486533965604406,Idle
0,0.32526071437448534,0.1592818888455415,0.04414783716233048,Idle
0,0.28589204457983836,0.14801524811034972,0.0428512754966783,Idle
0,0.31345684481641184,0.163339709369429,0.0355704117851027,Idle
0,0.28080677954312666,0.14670649744280873,0.03813388702379723,Idle
0,0.3415734872556443,0.1292151987112586,0.04297362331174791,Idle
0,0.3050855955440795,0.16585717395000735,0.04177569548379817,Idle
0,0.3475784258323388,0.16483889967428264,0.04205196540381099,Idle
0,0.33624302599258626,0.13738412835523006,0.03555906142900225,Idle
0,0.3625177375066839,0.12791293691243677,0.041792430792560044,Idle
0,0.32611952660183324,0.15117015632158798,0.0430246025683903,Idle
0,0.3032597239393896,0.17059529452400699,0.04398273787977994,Idle
0,0.3400303438434378,0.1579323898531864,0.044279126798989,Idle
0,0.3141595314449699,0.1648758372051299,0.0455895392409788,Idle
0,0.34670451351057446,0.13280094433964806,0.03608070291682293,Idle
0,0.3193708223564163,0.144762532705085,0.03744144012042019,Idle
0,0.28106864775721296,0.1491214726883512,0.03502547622151337,Idle
0,0.3594103656562032,0.1439011070220091,0.03602122808539529,Idle
0,0.2827178392458734,0.1290730838106036,0.03625942091829353,Idle
0,0.3130728614915528,0.1651217265622093,0.03608732484077021,Idle
0,0.31866724405440405,0.16983678389238346,0.044390276785709386,Idle
0,0.3645992266214271,0.1494720034339201,0.03784872312939567,Idle
0,0.30756226755739835,0.15887413900190814,0.042922899785121676,Idle
0,0.3765406153218372,0.1662470476061734,0.03514512997531171,Idle
0,0.346148299767279,0.17166826666063975,0.0434919584406009,Idle
0,0.32841528161509514,0.1481170160017959,0.04564228740921835,Idle
0,0.31508484586149904,0.15907407343641214,0.038562963885852064,Idle
0,0.28867525256580673,0.14980913667726115,0.0433612420828137,Idle
0,0.34086330344865723,0.1477133273763317,0.034411068552695524,Idle
0,0.3531732430414211,0.1608295914995429,0.041872255296953174,Idle
0,0.34153673808914176,0.1663489289348445,0.03498395922396076,Idle
0,0.31280251591986674,0.17188031973418144,0.04483449925204054,Idle
0,0.36013250403676006,0.16320233885807928,0.040136089635675665,Idle
0,0.2911863913675733,0.16992394824085266,0.04109997606430435,Idle
0,0.3457163288072169,0.15371099436943184,0.04399132278722696,Idle
0,0.3074974419583502,0.14121661726379844,0.03687900794707806,Idle
0,0.3465621930826273,0.1480221798436197,0.03766606633472467,Idle
0,0.3481659930981692,0.1712960945934369,0.035699604364964055,Idle
0,0.31594334811775826,0.13485025051136984,0.04099372633412492,Idle
0,0.3583306004299779,0.14996491370896048,0.04153881960990948,Idle
0,0.3168172677698451,0.1478644702410201,0.045884883908065055,Idle
0,0.36479417696296323,0.17047319251211668,0.0364248061807465,Idle
0,0.334183292405096,0.1609674072751901,0.036568513212125654,Idle
0,0.35865507317672607,0.14263154098926342,0.03891735868775774,Idle
0,0.32929362818779356,0.15411006305475405,0.04456115876203863,Idle
0,0.3158442194491422,0.15543225354082393,0.037813308284450856,Idle
0,0.2823674043385161,0.13236792294759217,0.045457391514261924,Idle
0,0.3579926329294362,0.17157116656259275,0.04238837600606053,Idle
0,0.3448218009233453,0.1546882639739404,0.0399806071189385,Idle
0,0.30232816417197933,0.13509359338190155,0.039910447767209534,Idle
0,0.3779657236189042,0.1316487874116323,0.03450346347970107,Idle
0,0.375887450230055,0.14938595549508693,0.04408454051792497,Idle
0,0.3737358458553749,0.14537516811793083,0.042142386549403124,Idle
0,0.3012831846289329,0.132304597953817,0.04084116289046103,Idle
0,0.3735101205816855,0.13909243543924177,0.03540536657462529,Idle
0,0.28351534844427856,0.1469971495038229,0.04370511082390515,Idle
0,0.3125200367429606,0.1378021962927567,0.04053966280665099,Idle
0,0.3414436140110078,0.1471998802291261,0.038432833846915336,Idle
0,0.3247121696126184,0.16150196989867946,0.03796356537043709,Idle
0,0.3583261633691992,0.14282736874159463,0.04233234381724302,Idle
0,0.3136404452238763,0.1694549742417195,0.04089371560479592,Idle
0,0.34455655426247994,0.14882800519353842,0.0342405685730467,Idle
0,0.3680863429289722,0.13624149400477534,0.04171748735070275,Idle
0,0.3483191877531396,0.13996300006659512,0.035964118917913,Idle
0,0.3314717112629019,0.16833780890042682,0.0420053689556578,Idle
0,0.2840923666075499,0.16410121897037663,0.04088518646015774,Idle
0,0.29275970578414257,0.14674618441287293,0.038188608752241164,Idle
0,0.3256616840892773,0.14786429667351916,0.043679983489570876,Idle
0,0.3069156219844144,0.13053220797687115,0.041967485549982884,Idle
0,0.30642601996985935,0.15256911991929753,0.037729218535636405,Idle
0,0.30464259363603224,0.14395588385603433,0.036519856131809865,Idle
0,0.3014873967445768,0.13114770119102587,0.04250766129772005,Idle
0,0.2879092578825421,0.15916835422790218,0.03689326061789165,Idle
0,0.3704825286638234,0.16014656115226086,0.04115832015662305,Idle
0,0.306776784819209,0.15507843243174876,0.0428374630316774,Idle
0,0.3469604738607944,0.1631967817244352,0.03626644072224921,Idle
0,0.3259014808978718,0.1419341260217703,0.037138167171408484,Idle
0,0.2949887589464344,0.13618300399544983,0.03910308975692824,Idle
0,0.32481806839784855,0.14915080352460366,0.040452109522599235,Idle
0,0.3169632198162665,0.14316774274820487,0.03424155645734612,Idle
0,0.3505803303750064,0.15267692292345206,0.0432467538324292,Idle
0,0.32624387625476725,0.13112558389280438,0.040415891391476014,Idle
0,0.314005795925955,0.1522154721235454,0.03417921806344009,Idle
0,0.295512275922231,0.16915583207774584,0.038806717723680134,Idle
0,0.3004581668535985,0.16222820548438052,0.03447848709338872,Idle
0,0.36644812800357235,0.16032801378086323,0.043521661054905125,Idle
0,0.3091300825011618,0.1566764809690767,0.04459932629797447,Idle
0,0.36534098057062403,0.13583210400015638,0.045523311812783344,Idle
0,0.3392290518660788,0.13252100515704462,0.03610448778951545,Idle
0,0.29440188634232317,0.15014481943436944,0.039473028769905084,Idle
0,0.36513138070926804,0.16418335543796525,0.03493441505505869,Idle
0,0.31448884971127233,0.14869652284008295,0.03761640773469213,Idle
0,0.3699536304742498,0.1370948705035712,0.039808546140872994,Idle
0,0.363135603028634,0.15480638943979735,0.04435539187160468,Idle
0,0.3302350365928002,0.16930462342382732,0.04003353146546185,Idle
0,0.37205716713778303,0.15121568084032228,0.03896002984705944,Idle
0,0.3764135048578217,0.13538559896466099,0.037325209730674117,Idle
0,0.36687296403684666,0.14237442386012733,0.0456785420151135,Idle
0,0.32854648003754267,0.1670615283341479,0.041104817128811914,Idle
0,0.30552320642626096,0.16548713624804434,0.03594392906351845,Idle
0,0.34256529049180284,0.14599382316270734,0.038063165529591186,Idle
0,0.2843023149577389,0.13828891100920904,0.04279071651600053,Idle
0,0.29844178098299057,0.16907905148892835,0.039357452102921686,Idle
0,0.3329253438881136,0.16145721296901977,0.045224839271994284,Idle
0,0.3352251407874601,0.17207740419576217,0.03544650581465016,Idle
0,0.3767576441636012,0.1451049427688188,0.042346326555479485,Idle
0,0.2895674295507839,0.1375465435735416,0.04134793452204745,Idle
0,0.377108476842149,0.15649685906505148,0.03457935946758704,Idle
0,0.34040009640618,0.13408859323801825,0.03503835610456303,Idle
0,0.3754910947706731,0.1459443389452307,0.043824258776387445,Idle
0,0.3407189160633878,0.1618341434908442,0.036147502263056575,Idle
0,0.3156153729221601,0.14684104974198292,0.04373326331382765,Idle
0,0.3332656304931492,0.1398158149095803,0.040665754692539836,Idle
0,0.33384039607090593,0.16116060042225563,0.04280524993983003,Idle
1,0.28231475625450897,0.5817684968118797,0.4231335913086819,Sitting
1,0.2569562849847084,0.5745032248826722,0.49026388627366335,Sitting
1,0.2375715409990199,0.5133778183593809,0.46133611818950404,Sitting
1,0.22029010079838365,0.4836803428286602,0.4610944163728839,Sitting
1,0.24890388614665263,0.47626518280446256,0.5047144671628337,Sitting
1,0.2204070544006053,0.5663442193137879,0.4888821171643494,Sitting
1,0.2687193978108809,0.5672525097419973,0.4846805916656671,Sitting
1,0.2798198435459903,0.5374089703708531,0.40612737745109573,Sitting
1,0.23955816507515487,0.4986682375855265,0.38841542844142735,Sitting
1,0.2588488112970173,0.5460793942620764,0.43969931511986443,Sitting
1,0.21922389817229623,0.5205181115686627,0.41984425061662406,Sitting
1,0.26849903937470965,0.49585204116919246,0.4009257811027941,Sitting
1,0.2849577391270519,0.5676531533572182,0.3976802087648175,Sitting
1,0.22313645212132435,0.46209832545593704,0.5061285238444326,Sitting
1,0.2585558584289164,0.5510366482459341,0.44684748827756215,Sitting
1,0.273123803418984,0.5279195272081327,0.393937294325667,Sitting
1,0.2806558449692911,0.5513627970580378,0.45168001034952676,Sitting
1,0.26638028990342694,0.5499764165872741,0.4795146357060737,Sitting
1,0.21822704299932788,0.49073445336640814,0.5146988831321736,Sitting
1,0.25224616075105244,0.4941241531530308,0.45516800174115163,Sitting
1,0.28658701291695865,0.4886732162718141,0.4549650953363529,Sitting
1,0.28489344331417976,0.5071262467670442,0.4132872302342583,Sitting
1,0.26028961548387514,0.47018863979066855,0.4015362508481758,Sitting
1,0.2416613857681103,0.5766249774007555,0.512559614472044,Sitting
1,0.2441476750771019,0.4364577741409089,0.48535851459812124,Sitting
1,0.22404792111514185,0.495150540013892,0.4582356902748378,Sitting
1,0.26121060099395615,0.4629961960938611,0.5154366827662011,Sitting
1,0.24440446929011034,0.525365829886644,0.5100000611331735,Sitting
1,0.25334027052840496,0.5466188993926562,0.42279851007230973,Sitting
1,0.2701497700249961,0.519673983778101,0.4426430633704922,Sitting
1,0.2782871311725519,0.4669640575388302,0.43583449405201136,Sitting
1,0.25131076243511175,0.45317938572214755,0.3945772849535818,Sitting
1,0.2764510719402457,0.5117897981768423,0.43373197565550065,Sitting
1,0.2154955535978835,0.508726802138119,0.42201876362476953,Sitting
1,0.21961595110558874,0.5590837920323624,0.45642034849163743,Sitting
1,0.2549720842092335,0.5011716897202886,0.39632119599485266,Sitting
1,0.23611034103628067,0.4417066860669492,0.4822256423297884,Sitting
1,0.2751674144735645,0.4855770130673869,0.45992339661259524,Sitting
1,0.2786407147099616,0.4549452284529886,0.45861660686276035,Sitting
1,0.2745887542053208,0.5426189643332112,0.4787134331323056,Sitting
1,0.21732603397791062,0.4743933204964331,0.48928512568381805,Sitting
1,0.2418464896867146,0.5837855919063278,0.49753679625748565,Sitting
1,0.26237673297899555,0.448185534820717,0.4850419137516605,Sitting
1,0.2371319250626855,0.4737066826532419,0.41428752109504646,Sitting
1,0.2561756593785645,0.5737727742813448,0.5140233106970241,Sitting
1,0.25264472951742845,0.4501105173943767,0.3957879977691881,Sitting
1,0.278370611242101,0.4696191526357483,0.4593518771570845,Sitting
1,0.23685668732883908,0.4770893590408548,0.471317151430208,Sitting
1,0.25857769332644903,0.573509578410018,0.4342332221428602,Sitting
1,0.26229375003683336,0.5040159036262004,0.4673953350407362,Sitting
1,0.22538484440544482,0.5004516637508537,0.44934120325240884,Sitting
1,0.2384913220960959,0.4379493353889016,0.4668732964383497,Sitting
1,0.22140390000822124,0.5307292048495332,0.4283879914475378,Sitting
1,0.26488812264106093,0.5174066878669071,0.4385596819553814,Sitting
1,0.25945967332764946,0.5685321098368629,0.4147534286517309,Sitting
1,0.24041659035828353,0.5633878971299612,0.387256747956875,Sitting
1,0.2503524630601188,0.4720796062111276,0.5090382747643407,Sitting
1,0.27742396228881383,0.5278188812652737,0.4297012198821689,Sitting
1,0.22050633810033654,0.5728937980706585,0.42123945317357325,Sitting
1,0.22631928421938508,0.5465410349928331,0.4012714324744628,Sitting
1,0.28071401872481017,0.5503974628578545,0.4176689426216015,Sitting
1,0.23557190874302897,0.49147748049636253,0.4716781607032193,Sitting
1,0.2730628466210921,0.4644033410374725,0.442990200627543,Sitting
1,0.2406827145670674,0.4931576579289603,0.5029724582686704,Sitting
1,0.22805693459636237,0.5316942086620249,0.3850576903957495,Sitting
1,0.22496807777031236,0.45589218904584417,0.4672262257106951,Sitting
1,0.22964273469849925,0.47961755019582436,0.4765136348604547,Sitting
1,0.26513907022952,0.582719494531741,0.4492975335393506,Sitting
1,0.2789660290781675,0.5256712663449196,0.45966579153483494,Sitting
1,0.2512204576692712,0.5174210162991644,0.4745522686561756,Sitting
1,0.2786812765115382,0.4801467527734636,0.42418377421205294,Sitting
1,0.26913765202126544,0.4724967998980498,0.5024525919955493,Sitting
1,0.27912359284103255,0.5343965571260288,0.43722753300420325,Sitting
1,0.2629124803596885,0.43600445939653854,0.49879419086675103,Sitting
1,0.2621820181218473,0.44159856666860836,0.3946295623570467,Sitting
1,0.223032380311473,0.5782554370363788,0.4416012316754028,Sitting
1,0.27584133707186587,0.5860627330277038,0.4198036570406968,Sitting
1,0.2353801352991115,0.5783576232314921,0.40714669683338955,Sitting
1,0.2776003157462068,0.5439226213257071,0.5096824206908187,Sitting
1,0.24571648332123153,0.49736006665980453,0.40076105429709286,Sitting
1,0.2747427414264565,0.5670202711844161,0.3925799613164566,Sitting
1,0.28158090367560795,0.5635257507348612,0.4197569692614435,Sitting
1,0.214709730706965,0.46416076725744454,0.5093169869601384,Sitting
1,0.2753298635667582,0.5034339134380459,0.4543969031158425,Sitting
1,0.26703246642975637,0.5314741817997801,0.511773334883104,Sitting
1,0.2846341804675662,0.46347283784590326,0.5055578027301952,Sitting
1,0.26975682389199446,0.505849582332133,0.4066872512412701,Sitting
1,0.24672970868415564,0.5564528763048894,0.5053252954271645,Sitting
1,0.23459619302771176,0.43933588134908264,0.46469170869108245,Sitting
1,0.2341109212043922,0.5467242684925796,0.49749727335890753,Sitting
1,0.21715568731653861,0.4823812168644605,0.5103442852889977,Sitting
1,0.2777657485528436,0.5771676238119005,0.40374977788655203,Sitting
1,0.22691722904122852,0.4477307093259557,0.49972267910351353,Sitting
1,0.21453770815085021,0.5445541564055623,0.44477647498804423,Sitting
1,0.23659804090815637,0.530834008392894,0.40792866709660086,Sitting
1,0.2572318064481945,0.46636193073661614,0.3840559279384028,Sitting
1,0.2747093237744427,0.48653388394235064,0.5154172470991776,Sitting
1,0.2759835240650119,0.5491083101585295,0.49063429911521733,Sitting
1,0.25488753596764513,0.5754701357294898,0.3941275145655894,Sitting
1,0.24096401975649434,0.4462561545487508,0.3995344645885701,Sitting
1,0.22325183274533003,0.46349494250480117,0.4539517884109495,Sitting
1,0.2429957384841719,0.5535661252408983,0.4242186084716684,Sitting
1,0.21487218928839363,0.49783916937115913,0.4429413110637375,Sitting
1,0.22198910751916062,0.43400804158676065,0.5154293959491829,Sitting
1,0.2430824928147649,0.4561029518538733,0.49643071650209336,Sitting
1,0.22942109257125906,0.43739187302182236,0.3845661009101036,Sitting
1,0.2759561201128642,0.4846748180609983,0.5138858110674341,Sitting
1,0.2785663998833341,0.5381040007488899,0.5076097811162159,Sitting
1,0.2650006219429395,0.4973918279311772,0.48909460850996045,Sitting
1,0.2396450775207179,0.507139810186437,0.3983272106925883,Sitting
1,0.27942931385742686,0.48947239333468945,0.38638195118119484,Sitting
1,0.2179099561200354,0.5807372782506051,0.4232427059839664,Sitting
1,0.24180992735078766,0.46742536987618605,0.38251396207614224,Sitting
1,0.21713725068812947,0.45918947382054526,0.408070468826416,Sitting
1,0.28157358574602503,0.5418871668490994,0.43918616033598573,Sitting
1,0.2732067370235474,0.5830686212325229,0.42299265053487733,Sitting
1,0.2716566706609447,0.49271599472662214,0.39634325243721374,Sitting
1,0.2440630183895119,0.5308890997226813,0.39523142090498387,Sitting
1,0.2293907381946892,0.564944902129341,0.45318133942930744,Sitting
1,0.248722976726866,0.5568154403779054,0.4914949125499058,Sitting
1,0.2858665601894668,0.5310942503954571,0.4881783615054724,Sitting
1,0.2712021981235622,0.5505821933993965,0.4603338385272148,Sitting
1,0.25492192016884635,0.4455008696849456,0.40735981887148626,Sitting
1,0.22797208425913681,0.575944522151742,0.44118439673939075,Sitting
1,0.24168144799480848,0.5362477564875267,0.4010975920490641,Sitting
1,0.212769753257315,0.5537660557026948,0.41185237068962377,Sitting
1,0.2409349207261719,0.45374079124523564,0.4081499151095052,Sitting
1,0.23589267530773161,0.47658754062269076,0.49259176636034663,Sitting
1,0.25398085447870816,0.49201139100179075,0.48812392434883983,Sitting
1,0.2127070867531173,0.4400727369388814,0.47136566316509465,Sitting
1,0.23296364015263418,0.5511448320789818,0.43838667524003233,Sitting
1,0.2270351086666299,0.5365064226269145,0.5140254315124987,Sitting
1,0.2702739734238266,0.4863729921618706,0.42367727751224393,Sitting
1,0.2580316677332443,0.5535304444335821,0.40031131521673274,Sitting
1,0.26888309071803723,0.5813395772287749,0.4944124729735739,Sitting
1,0.2642137954434781,0.5540426027953337,0.4205201891206367,Sitting
1,0.27774278680867603,0.4372481734898318,0.4287025705476318,Sitting
1,0.22777437689966293,0.44693101497417503,0.5143010233454928,Sitting
1,0.24211658031662509,0.43584631002409063,0.3856578173372949,Sitting
1,0.28397082472754814,0.4690834917141744,0.40775550888278217,Sitting
1,0.25289301648843054,0.5578274791096723,0.4065058006118841,Sitting
1,0.23021713019536388,0.445143364529785,0.42791983844847253,Sitting
1,0.2847736650016296,0.5203522507663467,0.4135065654633678,Sitting
1,0.2230885085806742,0.5061001706292623,0.4652676819398743,Sitting
1,0.28337095499634735,0.47939697103587536,0.47687241329768,Sitting
1,0.22157742290683588,0.5645588425323954,0.5085379130571507,Sitting
1,0.24002710000701527,0.4442639511060979,0.39014099716872974,Sitting
1,0.27605195342839195,0.5702688808370476,0.3833957737445242,Sitting
1,0.22286587021664256,0.570992814641315,0.388146552338086,Sitting
1,0.27339671833623325,0.5714040509670106,0.4994820571047662,Sitting
1,0.2787271640411258,0.48930384161998686,0.44385933639231767,Sitting
1,0.25473986494102263,0.5483036022452166,0.41142017299718686,Sitting
1,0.23333020417624462,0.5232006378166851,0.4083617697835639,Sitting
1,0.24627425294029845,0.547129563086041,0.4215145867785546,Sitting
1,0.26411673859971196,0.449020809254978,0.47321797888116907,Sitting
1,0.28090871671450135,0.5730966433512891,0.42800810830613306,Sitting
1,0.27679114722935905,0.5641611176356279,0.3933292363042321,Sitting
1,0.2272576144351646,0.4586040296652181,0.506991415090564,Sitting
1,0.21769579491753413,0.4405046078435164,0.40794420103417606,Sitting
1,0.22556996879126381,0.5692430735242323,0.4118064774053729,Sitting
1,0.24972090282207504,0.5058849611645128,0.4448778207917234,Sitting
1,0.2149189449602918,0.531907455318147,0.5043847636766473,Sitting
1,0.2223476852645445,0.5250179342011693,0.39570030861754124,Sitting
1,0.22150229964816248,0.5150163808923542,0.5077986739448634,Sitting
1,0.2569502034390758,0.4421877595903654,0.5050761123101027,Sitting
1,0.2838543596186403,0.5641152194572675,0.4825871225606114,Sitting
1,0.23812705521492633,0.43543832370155305,0.42908776353933725,Sitting
1,0.2725269421428894,0.47486676904543346,0.5075607831969118,Sitting
1,0.22612232945198904,0.48967926544014917,0.5158436637774643,Sitting
1,0.23675901567731852,0.5685813539661123,0.4929047227011713,Sitting
1,0.21318539310580967,0.47226847962766616,0.4893234449874579,Sitting
1,0.2625075889799748,0.5360554295205713,0.4656215251110511,Sitting
1,0.23861727549712583,0.5138821767151992,0.49502576740286824,Sitting
1,0.22981830712959958,0.5303856725513735,0.39367693407643295,Sitting
1,0.23456269082573783,0.5333862777901339,0.48368642661583083,Sitting
1,0.24753597761106194,0.434724288721835,0.5119585398855055,Sitting
1,0.23270710440624945,0.5352727505244651,0.415820947399826,Sitting
1,0.2746138286534287,0.4530683942785018,0.41331393600906413,Sitting
1,0.24923723484796506,0.4976210232410086,0.4779078002325452,Sitting
1,0.27436723145871866,0.5820752101921416,0.45647213902825845,Sitting
1,0.2562800657448681,0.5411072883376247,0.49624260159308436,Sitting
1,0.2640310963202151,0.43809994067869995,0.3854806817867726,Sitting
1,0.23563217480305093,0.4655815034999041,0.41809345665109937,Sitting
1,0.2821589445552236,0.46522465112199773,0.44059966853650023,Sitting
1,0.28396784610985465,0.5748725535699954,0.40513322154218956,Sitting
1,0.2707576019767651,0.5529401760898618,0.480644959454154,Sitting
1,0.2804477243199084,0.5565948543664133,0.5035850076911816,Sitting
1,0.24023569083482268,0.5307595798228515,0.42387917642376016,Sitting
1,0.2803271087966786,0.5173818466814436,0.4301664152731017,Sitting
1,0.2668379343572675,0.5778511181624516,0.5112621552637987,Sitting
1,0.27345480852993254,0.5828773023757658,0.5065989382261663,Sitting
1,0.276003836631677,0.5084719122802007,0.4201051293907893,Sitting
1,0.26796529263500324,0.4494472256906674,0.4379727783092739,Sitting
1,0.28317512522125243,0.43350442424237334,0.43777471305015514,Sitting
1,0.24265043073465895,0.5745116942117673,0.4318150871528674,Sitting
1,0.2764942051582374,0.5276922856203091,0.45459668382063695,Sitting
1,0.22805060352842618,0.5425976697087407,0.4984171244874354,Sitting
1,0.2829389900187529,0.5249897291893374,0.4468083045442875,Sitting
1,0.2824456432183481,0.46700318971373256,0.4668166727258862,Sitting
1,0.26791425733549934,0.5187279482873582,0.41435776285838716,Sitting
1,0.27560923272109183,0.5218409149574093,0.4425452204292077,Sitting
1,0.23499099469990203,0.4712117796780335,0.5122406497072097,Sitting
1,0.27336296366375135,0.5042661731688444,0.49214258715538395,Sitting
1,0.2676222720466214,0.5596875981325186,0.4213175936489958,Sitting
1,0.26032833558887125,0.5739446151217658,0.39681372204362747,Sitting
1,0.27382338873088935,0.48939781075330396,0.5038245493882828,Sitting
1,0.24270696936657732,0.4858007014561666,0.47924873135424084,Sitting
1,0.2248843234627721,0.448180390893467,0.39613234962806926,Sitting
1,0.27257250113781084,0.503760132599741,0.41987189648641904,Sitting
1,0.25766165179241435,0.5798788179798932,0.4928907793878233,Sitting
1,0.25526769780606035,0.5364500090097195,0.38940155111583835,Sitting
1,0.2524072627338224,0.46398463511418464,0.4772642918877417,Sitting
1,0.276692261642758,0.4940302436567051,0.48069989064273816,Sitting
1,0.24721089054436637,0.5561983192055061,0.4743127676778469,Sitting
1,0.267200227034357,0.526520482475372,0.51065073331307,Sitting
1,0.25575005591845523,0.4867327367279324,0.38277648817471044,Sitting
1,0.2680684433167175,0.4799715058547897,0.41792518664154765,Sitting
1,0.2863535648705302,0.5814763389745781,0.4293120848540235,Sitting
1,0.23168769038313894,0.5073923114795809,0.48882601230940476,Sitting
1,0.2182319699265047,0.44782965471442165,0.41182314964362177,Sitting
1,0.25402332111234655,0.5415755549250284,0.38837589924932736,Sitting
1,0.23298708651764563,0.5261995074352114,0.3865478675983205,Sitting
1,0.21888788457118105,0.4506148041316914,0.5083542838726948,Sitting
1,0.22321368242811052,0.515101070342446,0.47732747892050825,Sitting
1,0.28558308647550873,0.5542165242260231,0.3881322716886548,Sitting
1,0.23990315639663343,0.5788659555980725,0.4967903680552603,Sitting
1,0.27687112083806453,0.5326693227938217,0.40706395516545096,Sitting
1,0.2740781467255044,0.5589063239443065,0.47293482343336196,Sitting
1,0.2672275472618412,0.536883018101702,0.3988758650542022,Sitting
1,0.25746133870363314,0.45950120321789373,0.4908257698798183,Sitting
1,0.231835050111175,0.5291218630970256,0.44728494275046493,Sitting
1,0.21377248553098752,0.5018301752528649,0.48298820467577774,Sitting
1,0.2817014980448842,0.482887006631675,0.46592410199513323,Sitting
1,0.28305018214440714,0.5633794333865336,0.4759350668599359,Sitting
1,0.25635804365372417,0.5135190582934525,0.48199333217836426,Sitting
1,0.27716946102729223,0.5240777168420252,0.5095061490437751,Sitting
1,0.21907502499851064,0.44977760982839415,0.3852611749683783,Sitting
1,0.24249676644157092,0.5302369791685356,0.5137315450050499,Sitting
1,0.22545758883922265,0.5571142969376146,0.45985472281565093,Sitting
1,0.23798889373389864,0.538001145808717,0.49363704748248993,Sitting
1,0.2564757589503333,0.43647510135620626,0.49024985879536515,Sitting
1,0.2354067692176121,0.48065597475703453,0.5123489161888408,Sitting
1,0.24599336211100686,0.5769003017658566,0.4966142716702808,Sitting
1,0.25852264242543593,0.5577654440713363,0.4438120618706541,Sitting
1,0.27591883306053666,0.43652737675060554,0.4746488765617432,Sitting
1,0.2735108057105133,0.46283035473855255,0.44878940496398134,Sitting
1,0.250073894845206,0.4756589986437015,0.405016709627914,Sitting
1,0.25940774883386747,0.5269661411237645,0.39184614607992896,Sitting
1,0.24098979207003438,0.4970435103557911,0.48363726111841193,Sitting
1,0.2602184052108265,0.5183993020713367,0.5148404649929469,Sitting
1,0.28052998590359524,0.47050103348432765,0.514733447600073,Sitting
1,0.2568577058673686,0.48788088519996803,0.4069161899449791,Sitting
1,0.21896323763969014,0.5020365845746949,0.40004887213991613,Sitting
1,0.27597224043309854,0.45129081520719744,0.39149029260048335,Sitting
1,0.2513233957464455,0.5700762420124255,0.3866159285113843,Sitting
1,0.23201964396602606,0.528510952338668,0.3949191302981449,Sitting
1,0.27308562189052216,0.45213956242548087,0.46115508879779277,Sitting
1,0.24279704475740876,0.5589003416187973,0.5084067073099455,Sitting
1,0.2772860447597354,0.43613267502653796,0.48524826665907606,Sitting
1,0.2546310620746453,0.4465506678385782,0.42612686113061743,Sitting
1,0.2193615000939727,0.556130755182115,0.4894576149643014,Sitting
1,0.2554926707084181,0.48308334794317653,0.4804774028263863,Sitting
1,0.2171147788564732,0.4645372922842919,0.47231174611821203,Sitting
1,0.22155463592698427,0.485432695650934,0.49678477565411827,Sitting
1,0.23069585119737135,0.5536780767755294,0.4644899137860428,Sitting
1,0.2171939279399352,0.47719564112246576,0.38722789767880555,Sitting
1,0.24454525160864946,0.5611897252815236,0.4212516820212928,Sitting
1,0.2867414669075563,0.5673245379056834,0.4354820232366606,Sitting
1,0.2608326984237176,0.5344737213928444,0.4827631088039368,Sitting
1,0.2619451536568562,0.57649216652682,0.49789325144772245,Sitting
1,0.2200978419450767,0.5829851261007716,0.49110788534939154,Sitting
1,0.21765906784044164,0.5462437072072805,0.509157800730459,Sitting
1,0.22628646029515256,0.44079315413328496,0.5112988262867256,Sitting
1,0.23520689710204962,0.4572233292298921,0.5005102698977602,Sitting
1,0.2816184149558073,0.5166430664938162,0.5064743366585077,Sitting
1,0.21362988273261452,0.5157225365381222,0.4800042495890967,Sitting
1,0.23981926498737363,0.47458196608946346,0.43227927458238047,Sitting
1,0.2817343439750773,0.45643413408025035,0.4849809888666779,Sitting
1,0.27335015665857826,0.46248294743512774,0.45701089176816556,Sitting
1,0.2172611880584555,0.5720059843472621,0.4474314351556567,Sitting
1,0.25555186620734927,0.5271465199653876,0.500552209917775,Sitting
1,0.21518585903091977,0.5527117507252424,0.40170870444714224,Sitting
1,0.24853231219322722,0.47731040104703537,0.3922600007190424,Sitting
1,0.2516024057414989,0.46981035211861283,0.4177375936667435,Sitting
1,0.2495615106912178,0.4452904737126227,0.5035210930236812,Sitting
1,0.21691008561851316,0.5236313875599243,0.4063200557891813,Sitting
1,0.24536512726279325,0.5581854534002325,0.5153534448363888,Sitting
1,0.27354488602086124,0.5262765640878572,0.3973857035805162,Sitting
1,0.26122108436564856,0.48493449847262204,0.41882776043590575,Sitting
1,0.2853394587954434,0.5258886270155587,0.4510817645466188,Sitting
1,0.24874435466469258,0.552726496246013,0.4456015048935232,Sitting
1,0.2746026175730496,0.483055186560189,0.5150980907624776,Sitting
1,0.25543306536555704,0.43932909100176626,0.481121643963986,Sitting
1,0.22179969092867372,0.4658613844824611,0.5074889829269558,Sitting
1,0.2763204434505102,0.5355954136333891,0.5173398416363637,Sitting
1,0.28464354447883644,0.5125684401864927,0.4803162886457215,Sitting
1,0.27899094219093634,0.5257655894969264,0.40543763523874365,Sitting
1,0.2850649250627602,0.5564550240435784,0.4386374084423531,Sitting
1,0.2317490429085877,0.4934322421716264,0.38500343645233814,Sitting
1,0.24436002389248052,0.50917002582324,0.4675684007753133,Sitting
1,0.24474763836560012,0.4645617890004655,0.478917332266401,Sitting
1,0.22737422140239272,0.4642666247372255,0.47463137931898525,Sitting
1,0.23595962895282216,0.5813093664303454,0.4026912487945763,Sitting
1,0.28286613072204236,0.47090873868231176,0.4927790403535343,Sitting
1,0.2561999848444393,0.5646642631544387,0.42761950282481487,Sitting
1,0.25865445022757594,0.5723261435260983,0.4442539954457323,Sitting
1,0.2137014832096882,0.5136072623664415,0.445351060644634,Sitting
1,0.21428126304657527,0.5054849860246349,0.4290649785218679,Sitting
1,0.22576822448456335,0.5719355673078567,0.49626943507469795,Sitting
1,0.263985954114505,0.5687539125165884,0.4966963946250229,Sitting
1,0.26020075324749564,0.4776921629996063,0.5048195322335373,Sitting
1,0.22560495017077728,0.44524776497104,0.40342764573962314,Sitting
1,0.2778369835660375,0.556932782929442,0.45005105403164203,Sitting
1,0.26758704673335726,0.5718765224551026,0.46639167266013426,Sitting
1,0.23635129622004014,0.5563986364101031,0.46465181371310654,Sitting
1,0.22263447036963963,0.5389122611699513,0.4521943136260712,Sitting
1,0.2413970402276118,0.48403525349283555,0.45115140771173434,Sitting
1,0.2849792146089929,0.46996872142081336,0.4674976132664985,Sitting
1,0.21641271691459266,0.5471495234723022,0.49425093630305295,Sitting
1,0.2677911848343239,0.5856415940741972,0.4787822985300269,Sitting
1,0.23445899543131862,0.5229299263592605,0.4664481875584995,Sitting
1,0.21502256326781444,0.4595052135731303,0.4959418197410908,Sitting
1,0.22695540824529167,0.5292573307424774,0.46320632312164245,Sitting
1,0.23327840442140577,0.567435411832899,0.3877820492256498,Sitting
1,0.23360213286865153,0.45225312808711987,0.4661683918284651,Sitting
1,0.250381534461941,0.5854540944761293,0.4790618037113644,Sitting
1,0.26648433713171,0.5239578413628917,0.40297036886248827,Sitting
1,0.24035169619090996,0.4495906831295903,0.48399147654220415,Sitting
1,0.24359248326882776,0.49877121589772105,0.4531374377881945,Sitting
1,0.2496772695532566,0.5422822437201501,0.50346514804298,Sitting
1,0.28568984030197264,0.5464172643492549,0.4690943206097139,Sitting
1,0.2820810032856691,0.5395835668769118,0.48534287946340754,Sitting
1,0.26297567131152977,0.4509386566158271,0.5018892285869134,Sitting
1,0.269111137304921,0.5239309974574654,0.456036346261824,Sitting
1,0.2477426591693319,0.5803920942848657,0.4871036773714134,Sitting
1,0.2810332051337414,0.43625337539359066,0.43656411537497575,Sitting
1,0.2467072471965276,0.4651879760439382,0.446074969904892,Sitting
1,0.2514595892819167,0.4925218411997348,0.4849882036302927,Sitting
1,0.2362799033242271,0.5573573291836228,0.4653425452839498,Sitting
1,0.24506582703767363,0.5614475158550842,0.5041382282044121,Sitting
1,0.2590687985226667,0.548923223426127,0.390934625357654,Sitting
1,0.24962030253488138,0.45042077055254465,0.50612031308887,Sitting
1,0.28510586085843614,0.5589586507468582,0.43238772419149973,Sitting
1,0.2330688884012358,0.5243266205838295,0.49930725073996846,Sitting
1,0.2315202856294772,0.47612817754404463,0.48625677395590466,Sitting
1,0.23336870232371154,0.5344532599493457,0.5013647772381149,Sitting
1,0.2224618241263378,0.4397735185501906,0.5127573399735997,Sitting
1,0.2505243209797389,0.5586337762542164,0.4578747342571856,Sitting
1,0.2346121444081551,0.5456991143473848,0.4607763495727927,Sitting
1,0.2652908371395437,0.5306054132811059,0.4122902907924183,Sitting
1,0.25960523881475805,0.4604247085468219,0.4276848229406072,Sitting
1,0.2650078517191409,0.4395880590096985,0.47890802649248204,Sitting
1,0.27743351041669734,0.561053092030721,0.4616711745926397,Sitting
1,0.266993698574594,0.447719868159745,0.3975214681406496,Sitting
1,0.2677616547870321,0.4922612446260613,0.38317281778827433,Sitting
1,0.23671473299765572,0.5010292770338303,0.49587985979848165,Sitting
1,0.22902997375263617,0.5598380713510565,0.47116606904271535,Sitting
1,0.26000136848283173,0.48860260626043706,0.47163116920762577,Sitting
1,0.26220381094671924,0.4512181146170237,0.38982190276986745,Sitting
1,0.28649080601627375,0.5584331229134734,0.41801379174602904,Sitting
1,0.24754383122499032,0.46279200513516683,0.3925263505061394,Sitting
1,0.25905688898622276,0.5581502997884505,0.43932334173079396,Sitting
1,0.23815381120611706,0.563788839795277,0.4549204008434838,Sitting
1,0.21712655815847662,0.43629031666483026,0.5075853845869999,Sitting
1,0.2492878098928165,0.5176792584500849,0.47935619236811733,Sitting
1,0.21715635271361527,0.4445348311626822,0.40548037606898507,Sitting
1,0.2220842410996322,0.5054662733027474,0.47059048897404865,Sitting
1,0.22322079953207946,0.5537217929007289,0.4021936518611645,Sitting
1,0.28719984117673697,0.4612903517701485,0.40424734115105626,Sitting
1,0.22672959638454823,0.44841363671711765,0.4323000366949953,Sitting
1,0.27962947569033836,0.4600873212004172,0.4169052038006224,Sitting
1,0.2746200622506824,0.45891199171000185,0.5103061497743206,Sitting
1,0.23419592506626505,0.4510045332665502,0.4600334197139514,Sitting
1,0.24042395977226116,0.5679672508614957,0.4095677672563242,Sitting
1,0.2424003336007884,0.55069490154143,0.506474314453687,Sitting
1,0.2557916305941099,0.4653523169160475,0.40819923945294584,Sitting
1,0.2508727428040832,0.5795524146548591,0.4016444103376322,Sitting
1,0.2581983724335914,0.5099670674324827,0.5148190362156836,Sitting
1,0.23266539967543481,0.46954628176709157,0.4995935059806181,Sitting
1,0.21308257716205278,0.5017807079900302,0.4922776573432841,Sitting
1,0.2506257484670126,0.5736994384087081,0.4408812590003898,Sitting
1,0.22611142910790966,0.5630753215035532,0.4367992980385812,Sitting
1,0.22757793075450825,0.5406142394492652,0.4482668195921586,Sitting
1,0.2219608636841383,0.5678333933625361,0.4132893322333271,Sitting
1,0.27296626902440513,0.4689562781430436,0.5030263062691946,Sitting
1,0.24610752926714688,0.4803257365930184,0.4326625371504883,Sitting
1,0.26632970927512134,0.5290154206453386,0.48454649207111816,Sitting
1,0.2556597721376873,0.505266546615613,0.5146159953641204,Sitting
1,0.23733372536988415,0.5398761718568545,0.44343350787521985,Sitting
1,0.24043819225989463,0.4629523442392298,0.395602412403027,Sitting
1,0.28698048482581356,0.5762976556126818,0.5006934658593468,Sitting
1,0.22764771631739728,0.5139390771869309,0.44378407242881934,Sitting
1,0.24996555893532518,0.4782863047755286,0.44559410782062125,Sitting
1,0.2353903972624008,0.45722160256753486,0.47125684011471225,Sitting
1,0.25563089830838215,0.45905435771218,0.4148995275265099,Sitting
1,0.21724292737050943,0.43942800632115087,0.4053107775967099,Sitting
1,0.21316745273759571,0.5514955277517335,0.44284933450585645,Sitting
1,0.28282671028179773,0.44429423337431856,0.5158071066416394,Sitting
1,0.23612066076414592,0.5544498041863963,0.5115175311489069,Sitting
1,0.21466303802189265,0.5122290936833368,0.4526004356299284,Sitting
1,0.2581750504360306,0.459036641039414,0.4713859985330325,Sitting
1,0.2140122603250433,0.4852029138322437,0.5151687901283896,Sitting
1,0.21553180608058017,0.479840248725088,0.42138150781499667,Sitting
1,0.2209354849695458,0.579007553643596,0.4644807863916856,Sitting
1,0.2776146347285074,0.498451833224869,0.4899285715885237,Sitting
1,0.24372530523192487,0.504542975690006,0.42547676775514537,Sitting
1,0.27709164106279977,0.4953371059955005,0.4696666354630945,Sitting
1,0.22924272408292384,0.5695053421886405,0.5134908338371952,Sitting
1,0.24016294739457683,0.5645448334050741,0.5085639798895845,Sitting
1,0.27574308586441776,0.46674124382077165,0.4346816938109429,Sitting
1,0.21319374798316792,0.48081262472092795,0.483973587151851,Sitting
1,0.27776052702743587,0.44330367995655756,0.4469275555133326,Sitting
1,0.2242715891125612,0.4793915824240294,0.39523217401851074,Sitting
1,0.22386643140735968,0.45584315988520335,0.41920071841075235,Sitting
1,0.2738932743078253,0.5566328896542257,0.4103354704238929,Sitting
1,0.2573260291321054,0.5515666706252133,0.3941278774312126,Sitting
1,0.28379737137556027,0.5095228425384343,0.4505318177891146,Sitting
1,0.2426430631645144,0.469835832958006,0.3981240124039811,Sitting
1,0.2828775648468878,0.568658277067099,0.3999679987429422,Sitting
1,0.28428887876401543,0.49049037864389394,0.4980970255040251,Sitting
1,0.2553204421554875,0.4565601888224203,0.47744935130811655,Sitting
1,0.28718146886759116,0.5690828719537875,0.4301754332364284,Sitting
1,0.26324686565990946,0.5204336852818612,0.4666667951520133,Sitting
1,0.23738405091301,0.5020028167759485,0.4340981103705371,Sitting
1,0.25989930637624514,0.4364405849099926,0.4388541339566065,Sitting
1,0.21770354949707063,0.4570627098103041,0.4532330563104879,Sitting
1,0.22752260883933467,0.5855040131249918,0.4693585394456927,Sitting
1,0.2331387193074117,0.43376147316405583,0.44213533199915783,Sitting
1,0.24564006313068384,0.47659458379952724,0.4722204183802349,Sitting
1,0.23147146189446827,0.43657049361884837,0.44664612205176785,Sitting
1,0.21783723805606178,0.541224952281214,0.45994174204960586,Sitting
1,0.21588577787008417,0.551312212911629,0.40012881598257816,Sitting
1,0.24968895256631224,0.5235780127030614,0.45936669091101934,Sitting
1,0.2426331466810838,0.5130481538676821,0.40319816169564754,Sitting
1,0.23741331612105454,0.47309900653681525,0.49115515553196054,Sitting
1,0.2598186904871325,0.5600834318578991,0.5071309919297174,Sitting
1,0.28220601851522525,0.48736198422959265,0.45488244588569926,Sitting
1,0.25833414117682113,0.5412082199943805,0.40441393050160485,Sitting
1,0.28090481676307716,0.5204402468660022,0.447440713051288,Sitting
1,0.24415306709622428,0.5666545090067258,0.3970291942212896,Sitting
1,0.2524133186297369,0.5823071638442061,0.4232774033865994,Sitting
1,0.27788663311392126,0.45617897545205427,0.49094695354210094,Sitting
1,0.2814270872234695,0.5642668405135317,0.3868552029260497,Sitting
1,0.24090155986940529,0.5355233968739362,0.39430765835436904,Sitting
1,0.2191801264072193,0.47898518795447764,0.4685344155327847,Sitting
1,0.24533830391880773,0.5823761122583189,0.4911477866463467,Sitting
1,0.2776002367852835,0.48367153172914584,0.39521703079708553,Sitting
1,0.23265608334114235,0.45725682423015646,0.43958609475185617,Sitting
1,0.2517200649084149,0.5682771500323361,0.4614902885927111,Sitting
1,0.2730487633882169,0.5563922945289109,0.4564920141239439,Sitting
1,0.25542013235873323,0.45262920558056674,0.5081769120511059,Sitting
1,0.2631708214938031,0.5410280671569992,0.473952961504543,Sitting
1,0.24816499324472627,0.48539575815736974,0.5020263523280314,Sitting
1,0.2253673448519682,0.44789832687816633,0.38558717267851844,Sitting
1,0.2250959428603023,0.48403646110976484,0.4635674383447929,Sitting
1,0.21650814981708136,0.4838862393591426,0.4698112789306222,Sitting
1,0.2243685926468049,0.45913755731016453,0.5092567723438768,Sitting
1,0.2252089628486599,0.5665185905234507,0.516572084764593,Sitting
1,0.2387186250614606,0.46337744733505115,0.3975160742188256,Sitting
1,0.23468562729136708,0.44339007249525964,0.5171109063018794,Sitting
1,0.2740904439473911,0.5522701057957126,0.4657816371327216,Sitting
1,0.2630589567510676,0.5176873380310004,0.49972645948494393,Sitting
1,0.28231708694748503,0.450528194544195,0.4056698941161594,Sitting
1,0.27930650585879135,0.5092002550330097,0.42125910412496037,Sitting
1,0.26758639049488375,0.5691012552106691,0.43121894928044113,Sitting
1,0.27796173576926125,0.5283133123238126,0.3990244372539271,Sitting
1,0.24200249236413796,0.571942406329343,0.3904106441496329,Sitting
1,0.23187053194058269,0.5430875461792503,0.5156655759436861,Sitting
1,0.2585095873712268,0.5073624996677032,0.4344423767116339,Sitting
1,0.21769172655165192,0.5518533559961925,0.43190338503248604,Sitting
1,0.21993359768227247,0.5142484162088753,0.4920836907077729,Sitting
1,0.2816424865615798,0.5818047608157142,0.4287514809124761,Sitting
1,0.28465298008134127,0.5225239926151779,0.47983019491871737,Sitting
1,0.21695660292062122,0.5214942483574528,0.49591764421795337,Sitting
1,0.2247594867000848,0.5136737485810529,0.4251397178174345,Sitting
1,0.23240526971078007,0.5759970495933808,0.46071030992140927,Sitting
1,0.22973000671170563,0.5483322515086628,0.501132056940206,Sitting
1,0.21554492688873803,0.45947842759864754,0.508727398528187,Sitting
1,0.2758488296793563,0.5132363783982017,0.49591695951631926,Sitting
1,0.2533880715809937,0.5858437341526815,0.4615514443936951,Sitting
1,0.2500971678214453,0.5275814673417222,0.40170356044611255,Sitting
1,0.2522365422491658,0.5316552047404309,0.46418874181716485,Sitting
1,0.2682815745181722,0.5323152840120403,0.49208286205358726,Sitting
1,0.2787089846212184,0.5493083282721359,0.4926819947880388,Sitting
1,0.22081508350441992,0.47110709300415116,0.5115741862503919,Sitting
1,0.21691649076563466,0.4672134165535058,0.411952184083546,Sitting
1,0.22836388772989075,0.4438159750057128,0.42410242359104966,Sitting
1,0.2581039340762716,0.5032790064294809,0.47275002119671355,Sitting
1,0.2609035063036602,0.43386062308272455,0.3884235635610282,Sitting
1,0.26520209946450835,0.5155743978112525,0.4425380521006947,Sitting
1,0.24791477679402357,0.4528789181117219,0.5019929886366805,Sitting
1,0.23941920810964398,0.47904216071030886,0.4958242611237605,Sitting
1,0.28613155936436324,0.44247389407121485,0.4971905239351037,Sitting
1,0.2737205270795747,0.5216019168270871,0.3888174608183742,Sitting
1,0.24362609926483317,0.5418579299859936,0.3866045649419587,Sitting
1,0.28435068568106736,0.5634898529861148,0.4245044830883048,Sitting
1,0.24375328337386437,0.5292120892672298,0.3829177003143324,Sitting
1,0.2138810474460143,0.5138622201774712,0.40730840291388526,Sitting
1,0.2713572238745827,0.4713787093737568,0.4601289883964614,Sitting
1,0.21496784034907174,0.5055147395340206,0.4971796641642881,Sitting
1,0.25979482845521895,0.45724278949137964,0.48612831232348774,Sitting
1,0.26700144471150705,0.5210996327551903,0.4149821087114239,Sitting
1,0.28539374102486964,0.5352385158217644,0.47390846502088774,Sitting
1,0.24169492169621193,0.5665442155878375,0.3929848133144544,Sitting
1,0.25538647912446827,0.550062056925448,0.41919792902355846,Sitting
1,0.26683703323466484,0.551168688476168,0.42152959506022225,Sitting
1,0.23626886436203567,0.5798333971832635,0.4389914434018958,Sitting
1,0.23941261611162468,0.5280275954694745,0.4883881188565425,Sitting
1,0.25924918121955315,0.47322621494840594,0.4783696179205875,Sitting
1,0.23113833258383507,0.4858905615483801,0.46814644093404467,Sitting
1,0.26329724924518294,0.5815721542614825,0.4138774131563891,Sitting
1,0.2741247953246784,0.449307273883388,0.4537400769285964,Sitting
1,0.2592844653079084,0.49753513286300255,0.4463534688918354,Sitting
1,0.28446199014282075,0.5851352866448672,0.48647421242583977,Sitting
1,0.2564690088554335,0.5844751609541321,0.49475205994018495,Sitting
1,0.2656425884634856,0.5266201524447846,0.38903639305237064,Sitting
1,0.23201901886139958,0.5809259405003521,0.427948390838934,Sitting
1,0.27839863218402283,0.5313560531553247,0.42928926930547057,Sitting
1,0.23466129101004,0.5595583515383556,0.4408923729606284,Sitting
1,0.2709980998512192,0.47554276315789706,0.41677761807354036,Sitting
1,0.2861667151294626,0.48935829168689504,0.395419354033373,Sitting
1,0.2523575348296712,0.4636734630896912,0.46377226325866877,Sitting
1,0.22430989935379247,0.4901785645423315,0.4425951634850152,Sitting
1,0.22103174052427957,0.507419351281243,0.47504467176500903,Sitting
1,0.26178331821659007,0.5201936376684364,0.4162566372154788,Sitting
1,0.2735360760115167,0.4929697135198956,0.5020943707307006,Sitting
1,0.2464468499654801,0.5530870936461791,0.39475647388467683,Sitting
1,0.22473761056791425,0.49599584971184696,0.384507927498459,Sitting
1,0.22369465548969336,0.5402631301163758,0.5038509781723383,Sitting
1,0.25246487422476366,0.4597969160270077,0.4065159425750085,Sitting
1,0.21449865203617777,0.4663780207663324,0.43470298868780327,Sitting
1,0.23905127608962834,0.4430224236219928,0.4407919469225077,Sitting
1,0.2646682257658082,0.5213441087011318,0.49793405780855915,Sitting
1,0.2390631338463389,0.5817958434994052,0.40319344691753317,Sitting
1,0.2801693566649526,0.45342595652420775,0.3940574542381415,Sitting
1,0.24092207118167405,0.4890310840803043,0.3948950002701203,Sitting
1,0.2287632481297202,0.5338265862904354,0.43455330677775955,Sitting
1,0.2529477077462193,0.5293792094030261,0.4587991154990355,Sitting
1,0.270017203211104,0.4475011666350015,0.499125534283908,Sitting
1,0.2340673909882279,0.5422228624420714,0.463508321974057,Sitting
1,0.232941394080573,0.5820624946902133,0.49358550494405273,Sitting
1,0.2183046830310652,0.4785366857176342,0.4546775573587418,Sitting
1,0.22209173739088567,0.509778154522293,0.38536576234372366,Sitting
1,0.22148794785870132,0.5464303051233591,0.4835980572422594,Sitting
1,0.2538895552574199,0.5084215403815837,0.5072975930986415,Sitting
1,0.21772884829703862,0.45723284287180216,0.50754174358558,Sitting
1,0.27201644431165395,0.579676089831079,0.4077894182370613,Sitting
1,0.22492165771111713,0.5266416072402361,0.45879207930724913,Sitting
1,0.2795048795462103,0.5683717922856791,0.4613724585919586,Sitting
1,0.2192573901814097,0.5672002186728333,0.4144109304256111,Sitting
1,0.28123599793040693,0.5855367220495052,0.41202845644164987,Sitting
1,0.2785850976877371,0.5485857663091167,0.4445898046382201,Sitting
1,0.23526490801453306,0.4541925939007611,0.39793385251264446,Sitting
1,0.26126261952824714,0.513205417483883,0.5110207460176005,Sitting
1,0.2848333580960064,0.4429794111812941,0.46672885563622857,Sitting
1,0.22156024353649667,0.45279171570794885,0.48805017482673185,Sitting
1,0.2500862217459587,0.4571871100486956,0.4689041218593232,Sitting
1,0.22941574928066052,0.5387082106905271,0.4287106819982225,Sitting
1,0.2598653107407717,0.47096395907877536,0.4327885570014424,Sitting
1,0.2295592696010459,0.47205445194547446,0.5174629880122463,Sitting
1,0.22008490328657554,0.4635573968797793,0.47347938412052804,Sitting
1,0.2532596628116358,0.47160659770120933,0.4221388825694243,Sitting
1,0.21616498175103596,0.43422396156569987,0.4908830891439569,Sitting
1,0.25193246844315864,0.4980052996022723,0.40477361475172974,Sitting
1,0.28614611568315096,0.5581696446198864,0.4279719528064558,Sitting
1,0.24516544207808771,0.44228189585751826,0.4207236837626843,Sitting
1,0.2496901597215743,0.4607067760783719,0.425496751821895,Sitting
1,0.25549359152594,0.5124942894876153,0.4467225131261467,Sitting
1,0.22370781252483854,0.4691291065355025,0.508804677808548,Sitting
1,0.262375252292106,0.5680112558057704,0.3856070376288339,Sitting
1,0.2441338438054749,0.4875860233762463,0.41687315588989,Sitting
1,0.23860766333929298,0.45822478776682946,0.48674020901742215,Sitting
1,0.27748967322874574,0.4577065308222,0.5072327718510989,Sitting
1,0.21850253908283607,0.44146265691958275,0.48582297765695687,Sitting
1,0.21943590361792445,0.47121236353935175,0.4794826275655001,Sitting
1,0.21859498915482234,0.559435932408747,0.5066286669634775,Sitting
1,0.2776119609288967,0.5114109194118224,0.3869576542448281,Sitting
1,0.2666745583289534,0.5704472832682478,0.38378040965445503,Sitting
1,0.23407013272673097,0.43545079601022274,0.3884767873309071,Sitting
1,0.22259306145596905,0.5434646881690831,0.4961622803152454,Sitting
1,0.27370909087551776,0.47458119737602134,0.41759892676620847,Sitting
1,0.2146225888479263,0.5359702438888484,0.4868984166098192,Sitting
1,0.24403395314130977,0.4724079419809852,0.4631668430433233,Sitting
1,0.24984169892399688,0.44880060390085547,0.44275170023552685,Sitting
1,0.28033479119762167,0.499794907105718,0.4119741604709299,Sitting
1,0.2753254184802896,0.5409955023575843,0.5164534398288295,Sitting
1,0.24433216326260776,0.5802831656260642,0.4879848754314074,Sitting
1,0.23336367004569414,0.5334570280443061,0.41918021159133756,Sitting
1,0.2841447828365642,0.43874839787930053,0.47864631980267425,Sitting
1,0.2576506191255726,0.4579630180579603,0.38395647438370945,Sitting
1,0.2191525124791743,0.49427289506899263,0.485964803933204,Sitting
1,0.2656389845970468,0.46954832323660967,0.5082088829642906,Sitting
1,0.2591956131272724,0.5441780043761348,0.48008570996610206,Sitting
1,0.2508042270837394,0.5281423011992267,0.4042433646388462,Sitting
1,0.28508539043323655,0.496089368894101,0.5131525647387578,Sitting
1,0.23628524459280853,0.4474364013282749,0.4870518567683438,Sitting
1,0.2740923147600013,0.561097328438717,0.49788525512828175,Sitting
1,0.22465739721407968,0.4489476351731988,0.4621423908262993,Sitting
1,0.24731217910941844,0.5482446189747137,0.43727206867611645,Sitting
1,0.28165177540730674,0.5199231125762217,0.39688326291204734,Sitting
1,0.2454316147743892,0.5243731781338495,0.44716904002334246,Sitting
1,0.24703140742516086,0.5831565485334117,0.46119789569280417,Sitting
1,0.2164000485393996,0.5560797675032837,0.46358890080317355,Sitting
1,0.23449658426500103,0.4463172678516251,0.39381940592214154,Sitting
1,0.24995145475934394,0.4663223289634448,0.4009753762408866,Sitting
1,0.2846270729465096,0.45842500429862076,0.38401440740583115,Sitting
1,0.23726051932711928,0.4892091817496193,0.40199748121579193,Sitting
1,0.21850261574869598,0.442630959126679,0.4649243501116715,Sitting
1,0.21556390592292837,0.49079131117605257,0.40067944414520734,Sitting
1,0.25443520855475166,0.542821101967134,0.5165192986035274,Sitting
1,0.2442268446066297,0.5621663867664392,0.4440205740607525,Sitting
1,0.23589722376306518,0.5722811021576867,0.46395068177646775,Sitting
1,0.23937936131146204,0.5007097185887935,0.4852273450073155,Sitting
1,0.22746473995297667,0.4505821559764686,0.443853574019388,Sitting
1,0.2710504629409781,0.5401392917341981,0.38545345304962275,Sitting
1,0.22813154289196722,0.45204538736429073,0.44375990247446884,Sitting
1,0.2326527499769858,0.5494193270880547,0.4986637033335871,Sitting
1,0.283203386573212,0.5080131873672057,0.44098981304409446,Sitting
1,0.2769204897310955,0.4605382920622265,0.49126831354963485,Sitting
1,0.24261425612613996,0.5397862774798374,0.5152550083414422,Sitting
1,0.2688659093902667,0.5117779049526918,0.417247685824021,Sitting
1,0.2676076514076786,0.5598499206176517,0.4514271986344616,Sitting
1,0.21502756720881397,0.5145555415863946,0.4583121612700187,Sitting
1,0.24789436288685557,0.47557679676201525,0.41097939246610327,Sitting
1,0.22159432532331064,0.5163636358909318,0.45034200427769117,Sitting
1,0.26119339128828944,0.5710986128335017,0.38712442471262337,Sitting
1,0.23983950978577778,0.5254442496531349,0.4598532635865405,Sitting
1,0.27807044843740514,0.4569524950970606,0.389022984246474,Sitting
1,0.27821068838327145,0.5788952699418866,0.5115695035096742,Sitting
1,0.283885577429555,0.5782500698962517,0.4549475947246283,Sitting
1,0.2416314901310759,0.5728057471411716,0.5045574306869818,Sitting
1,0.27341007366454073,0.4411054905186885,0.4167029688556723,Sitting
1,0.2761082252510272,0.4417665646253559,0.43903566348499523,Sitting
1,0.27453126162209707,0.48439138082504785,0.5061730764613906,Sitting
1,0.233447580312766,0.4489871683593775,0.3876912301251008,Sitting
1,0.24214164994628792,0.5770333917444362,0.423693681669114,Sitting
1,0.23740557511988433,0.4457625336181319,0.4117652290781833,Sitting
1,0.23865640210072375,0.571732113242219,0.43920173824024994,Sitting
1,0.23434617945996436,0.5753074319072845,0.45906398697575407,Sitting
1,0.2342249400126814,0.5541683078731428,0.48620901961336077,Sitting
1,0.24538122620009284,0.560029268860113,0.4212110739968754,Sitting
1,0.25088458340578007,0.5212050359545561,0.4269372492802031,Sitting
1,0.26160685495904457,0.5244076532017088,0.46497200137579625,Sitting
1,0.22068591075658867,0.5584249671974759,0.5095798959749362,Sitting
1,0.2697501125997314,0.4806592151466697,0.4440911303401657,Sitting
1,0.2716372416075197,0.5131760415574195,0.432929402423525,Sitting
1,0.2722521394748594,0.4464960467911329,0.4938997031627959,Sitting
1,0.26204136233318875,0.5187970242557104,0.4769681319438019,Sitting
1,0.2594238576718162,0.5002272126583406,0.4252071068399802,Sitting
1,0.2703505135581308,0.5856640958360558,0.495454078157585,Sitting
1,0.25793442487082224,0.5836242631863968,0.42585417348470395,Sitting
1,0.2181510464588036,0.45796366151853696,0.4623435527406146,Sitting
1,0.2364003810706104,0.5805169030624379,0.4215151782952777,Sitting
1,0.28016809181699076,0.4561567305114374,0.4002655109413313,Sitting
1,0.28664711519676894,0.5653472779815796,0.44033324418585046,Sitting
1,0.2617821281953796,0.5723065603921716,0.40221598443061746,Sitting
1,0.2761009608736362,0.5033636525171822,0.4456318097147468,Sitting
1,0.25986468461369744,0.5493346726951847,0.5159409108805206,Sitting
1,0.26586960125187853,0.45680206446716654,0.4649245513687501,Sitting
1,0.2706031339258776,0.5649434629161332,0.46268686029266437,Sitting
1,0.22993263115801232,0.581388371584707,0.5163614480288231,Sitting
1,0.2765242756064305,0.4338534536020337,0.42263056384391934,Sitting
1,0.2160535291648245,0.5738045815957601,0.42891940680258295,Sitting
1,0.2692584258713708,0.5204538157354381,0.4562845438120617,Sitting
1,0.23737475978457895,0.4780011604845657,0.42950690897736377,Sitting
1,0.21753731673840032,0.47532656550043206,0.4976631371020671,Sitting
1,0.2705055166945688,0.5835293091995283,0.4562592855628592,Sitting
1,0.2277826106713354,0.44050232914221116,0.46674424040597384,Sitting
1,0.21409515761087825,0.5194227234668386,0.44746330784075383,Sitting
1,0.2564472522542374,0.44020838083952163,0.4976865277920895,Sitting
1,0.22469222897840055,0.5443690298853028,0.485637884349635,Sitting
1,0.26990057195638023,0.537266370670877,0.40024087876241626,Sitting
1,0.22777662689520936,0.5472047126006405,0.4601120516189733,Sitting
1,0.25386768048922503,0.480635046338156,0.43066319928390223,Sitting
1,0.2522532479727464,0.5734322074650032,0.4165616588363834,Sitting
1,0.273527720955154,0.5653264007447011,0.5123740141940546,Sitting
1,0.2281165936545518,0.5373162635314571,0.5116689129841495,Sitting
1,0.23694876132051404,0.5295461972593107,0.4603310769322798,Sitting
1,0.22922081140874073,0.5548586303991604,0.49128109135400383,Sitting
1,0.2790841690837467,0.5056698719433365,0.473416234788961,Sitting
1,0.23522676515678176,0.5278171226205801,0.464520653540113,Sitting
1,0.2419468955475249,0.533515114426412,0.4991789913024188,Sitting
1,0.2230171926844466,0.5501896226766669,0.48756319317316865,Sitting
1,0.22716156704072862,0.5243201043424293,0.49513434926573824,Sitting
1,0.23086994187503362,0.5753570610840784,0.4249497856071272,Sitting
1,0.24920788182135573,0.45133480919964836,0.4449094687351252,Sitting
1,0.27941235752319693,0.46316585831517526,0.40881142943896226,Sitting
1,0.2565835419928536,0.5708146108608944,0.4323312764530121,Sitting
1,0.24251113633223578,0.44836798117204135,0.45032604770866097,Sitting
1,0.2249610144319311,0.4541647917037589,0.38529977423940126,Sitting
1,0.2614476992535165,0.45995158116144724,0.39776687314108217,Sitting
1,0.28729698424640404,0.5057206359363765,0.46304752321408643,Sitting
1,0.2328282007017041,0.5419796230387087,0.49373971407662554,Sitting
1,0.2665114864755479,0.4439108163582595,0.3946615178605185,Sitting
1,0.23552542759711267,0.4506885573975078,0.48875675391261336,Sitting
1,0.28454701187457265,0.5328536673872137,0.46394144965059775,Sitting
1,0.25489384835932527,0.46106163804675876,0.5117407202317701,Sitting
1,0.2294406765014711,0.49064990652510604,0.49007254442208414,Sitting
1,0.22273305847525904,0.5384340672798612,0.47942139263635225,Sitting
1,0.23563547438459564,0.5351726324637959,0.4571801015952266,Sitting
1,0.25127020559512575,0.43863288028076747,0.5054409371236603,Sitting
1,0.26305149943196454,0.4939166477182431,0.4847343346149082,Sitting
1,0.2270237027746964,0.47273538671182014,0.5013831141764573,Sitting
1,0.2441198123284586,0.4379265314901694,0.5134956739051872,Sitting
1,0.24796520842935738,0.548943094798698,0.4743017867344732,Sitting
1,0.2852694302424126,0.5591667059598884,0.47191938005221684,Sitting
1,0.23950141733653027,0.47530954113798873,0.3926455868279285,Sitting
1,0.27932882571085416,0.48160068201753353,0.4546464201065927,Sitting
1,0.2708224269096225,0.4399093493043994,0.4483294026465331,Sitting
1,0.21865931870870461,0.4525436761010734,0.49008083313863987,Sitting
1,0.28108651613509467,0.46323116803783837,0.41343658706802705,Sitting
1,0.24751546825455725,0.529453707800256,0.494252637000882,Sitting
1,0.2698534433328884,0.4955553357135148,0.4445552278963548,Sitting
1,0.2632526077894171,0.47819241931789824,0.4653944133299754,Sitting
1,0.23991854340963062,0.5575798819694394,0.44909084277629635,Sitting
1,0.27623266294637117,0.577845791257056,0.5112151045954658,Sitting
1,0.2610121584352293,0.5117350118008055,0.41820544977095003,Sitting
1,0.2628617208720619,0.43911511007251514,0.5098693575347788,Sitting
1,0.2374729700289001,0.43395766159554666,0.49601945832821154,Sitting
1,0.2658316837028749,0.44759959332185795,0.4197552460012386,Sitting
1,0.25918403735346784,0.5736599537459944,0.4686463239843508,Sitting
1,0.27632793271533507,0.5014700112497101,0.44321755137325075,Sitting
1,0.2519912206110878,0.5844276212521162,0.4417514262567037,Sitting
1,0.2546332753294384,0.5859755924338101,0.45441146218970613,Sitting
1,0.22022303222854123,0.5590616314182462,0.5170376036882249,Sitting
1,0.2586486335346872,0.5131767346983539,0.4544726575685884,Sitting
1,0.27778485568068617,0.5418324604568758,0.4171933881716718,Sitting
1,0.28412886629814177,0.4701720399159101,0.47126922919352693,Sitting
1,0.25585499407986045,0.548406226268068,0.5142232225211315,Sitting
1,0.2579618579481468,0.536775006389902,0.42836943538013833,Sitting
1,0.2763552942133137,0.4350841324767898,0.487845139951214,Sitting
1,0.27565003355363227,0.5654621191919458,0.4429280623942649,Sitting
1,0.24051357709796814,0.4632998967567033,0.4415892972824306,Sitting
1,0.25199562291039734,0.5068384609436244,0.4303769524327778,Sitting
1,0.2496107060131343,0.503424476637975,0.4015161756193833,Sitting
1,0.2311743078050873,0.5610639737536282,0.49045072844532517,Sitting
1,0.2551695971571663,0.4471600645772361,0.38836775831175374,Sitting
1,0.22999133253510312,0.5056233016666813,0.48497909611454815,Sitting
1,0.21914022276322806,0.5578931341185606,0.38669511754547753,Sitting
1,0.23691603734664823,0.45263025594798173,0.5173781245384886,Sitting
1,0.2664986381772606,0.5294970184398182,0.4809419202300827,Sitting
1,0.2668286478155481,0.4895241520886723,0.42832906076558563,Sitting
1,0.21718885407103616,0.5156590408510487,0.46924213478885285,Sitting
1,0.2420915168547882,0.52458074342988,0.4225773104355968,Sitting
1,0.2639524404540964,0.5454879146635203,0.4489272210859083,Sitting
1,0.22812017763292114,0.4881284504804372,0.47802966525001395,Sitting
1,0.23366991414883398,0.5180103086002478,0.44441436034065335,Sitting
1,0.22470956776453463,0.4863796129296663,0.4994897906740888,Sitting
1,0.28656802148153676,0.5740188431521268,0.5021693486484065,Sitting
1,0.2216865760321112,0.5320464962165791,0.40620215214591154,Sitting
1,0.24505589558922133,0.47864246614406514,0.409808299091192,Sitting
1,0.2697326320458212,0.51363225493927,0.5071217852190105,Sitting
1,0.2478919572355064,0.5074387574917755,0.50829437056963,Sitting
1,0.2570601810880931,0.4953042656159231,0.48900987155911113,Sitting
1,0.22618726356179913,0.47597023371867486,0.49212765575022444,Sitting
1,0.22493226928264423,0.5105116319028946,0.5148913785760879,Sitting
1,0.22490054039181104,0.4457935979219927,0.4650788188309232,Sitting
1,0.2494236370572717,0.5781627939278005,0.42926485138240195,Sitting
1,0.21671013961274183,0.5355915683504097,0.5156766901815556,Sitting
1,0.25222728124819344,0.532597695393233,0.5058866831205832,Sitting
1,0.21484886982342044,0.5358788868731421,0.388952863877312,Sitting
1,0.25073751441316594,0.5096777575004109,0.456950888716576,Sitting
1,0.2509171806224437,0.5646616986891986,0.4699435343321387,Sitting
1,0.24655527623761625,0.5789814307292619,0.5008733000333722,Sitting
1,0.270919396778908,0.5094646712360144,0.48024654041023845,Sitting
1,0.2749095074044144,0.5704736248694559,0.47716371624022813,Sitting
1,0.28661847623006526,0.4413988788728577,0.42687021526812785,Sitting
1,0.2155606397986078,0.5468442847480672,0.408546286673776,Sitting
1,0.26512394049005217,0.4677856538914291,0.5079989529721414,Sitting
1,0.22351022804965942,0.48115778685513544,0.49125668318667465,Sitting
1,0.230007485524858,0.5515473262563229,0.4044211748867168,Sitting
1,0.260341623867137,0.5760282548227702,0.42739685893810214,Sitting
1,0.21887360867006986,0.5338897974295663,0.47884750066608395,Sitting
1,0.2534633524569043,0.5691007015088272,0.45191045769035976,Sitting
1,0.2597998873170205,0.5719410000307318,0.4539857217799819,Sitting
1,0.2447944154684171,0.4366826613548464,0.4872674298982943,Sitting
1,0.2592096034866648,0.4675348584380962,0.5124529696276313,Sitting
1,0.22371623440035518,0.5712359847964388,0.4735697818307326,Sitting
1,0.24873745833598027,0.5036166976568431,0.5099018010616547,Sitting
1,0.2577359900781738,0.47403854937280154,0.39508896254851117,Sitting
1,0.28728064158987016,0.554999708090205,0.4235037675933852,Sitting
1,0.2826891161990026,0.4691188808886865,0.49302945889308436,Sitting
1,0.27221832824386005,0.535759467941763,0.45314979406150013,Sitting
1,0.2644857303704431,0.44338036533512265,0.42181531854007426,Sitting
1,0.2838545533111414,0.46992951275926187,0.4341593354466948,Sitting
1,0.2247717911661529,0.5447758807485836,0.4701737105805201,Sitting
1,0.27143339847376674,0.48152658012195626,0.41630699105475905,Sitting
1,0.2696472850947516,0.542590863362696,0.4383156092028063,Sitting
1,0.2151827033574428,0.4750579735878009,0.4396341201210053,Sitting
